ax,ay,az,mx,my,mz,gx,gy,gz
4.15353242715355e-05,8.228516890085302e-06,2.563763645824224e-09,6.695309306969932e-10,5.460153392055393e-31,6.482002712360213e-10,5.707635389909153e-31,4.165560257840539e-11,6.79909973277442e-33
0.00016613377374596894,7.847323485465907e-12,2.5637625356011995e-09,6.295131638189844e-10,5.429218142323673e-31,4.005776960136487e-11,6.797966115409846e-33,4.143108425780362e-11,6.79910046745839e-33
6.337645408471815e-10,3.2914049370447174e-05,2.5783144508295663e-09,1.007221062110375e-08,0.00017660181038081646,1.0731176189437974e-05,5.614950011335517e-31,4.0971705195236297e-11,6.798725043950096e-33
6.336929314620932e-10,7.847320016018955e-12,6.409406339002999e-10,6.295131638189844e-10,5.460033021433869e-31,2.730698270170251e-06,5.615070381957041e-31,4.120351976277803e-11,6.798154194505978e-33
2.534774168339027e-09,7.847320883380693e-12,0.0001661188725847751,1.28570619040147e-07,2.72960255642829e-06,1.658119828107374e-07,5.553560994358174e-31,4.005776960136487e-11,6.798154194505978e-33
6.409406339002999e-10,6.295131638189844e-10,5.460033021433869e-31,2.730698270170251e-06,5.615070381957041e-31,4.120351976277803e-11,6.798154194505978e-33,2.534774168339027e-09,7.847320883380693e-12
0.0001661188725847751,1.28570619040147e-07,2.72960255642829e-06,1.658119828107374e-07,5.553560994358174e-31,4.005776960136487e-11,6.797966115409846e-33,6.409406339002999e-10,6.295131638189844e-10
5.460033021433869e-31,2.730698270170251e-06,5.615070381957041e-31,4.120351976277803e-11,6.798154194505978e-33,2.534774168339027e-09,7.847320883380693e-12,0.0001661188725847751,1.28570619040147e-07
2.72960255642829e-06,1.658119828107374e-07,5.553560994358174e-31,6.336909885718001e-10,7.847320016018955e-12,6.409406339002999e-10,6.295131638189844e-10,5.429218142323673e-31,2.730698270170251e-06
5.615070381957041e-31,4.120351976277803e-11,6.798154194505978e-33,2.534774168339027e-09,7.847320883380693e-12,0.0001661188725847751,1.28570619040147e-07,2.72960255642829e-06,1.658119828107374e-07
5.553560994358174e-31,4.005776960136487e-11,6.797966115409846e-33,6.336929314620932e-10,7.847320883380693e-12,6.409406339002999e-10,1.1506036571518052e-05,2.744503490248462e-06,6.818743827352591e-07
5.460033021433869e-31,4.006753956398157e-11,6.798154929189947e-33,4.0062331924106687e-11,6.799665439430754e-33,1.0384061170043424e-05,8.035661025473928e-09,1.7246276229343493e-07,6.295131638189844e-10
5.460033021433869e-31,6.336909885718001e-10,7.847320016018955e-12,6.409406339002999e-10,1.1506036571518052e-05,2.744503490248462e-06,6.818743827352591e-07,5.460033021433869e-31,4.006753956398157e-11
6.798154929189947e-33,4.0062331924106687e-11,6.799665439430754e-33,1.0384061170043424e-05,8.035661025473928e-09,1.7246276229343493e-07,6.295131638189844e-10,5.460033021433869e-31,4.005776960136487e-11
6.797966115409846e-33,6.409406339002999e-10,1.1506036571518052e-05,2.744503490248462e-06,6.818743827352591e-07,5.460033021433869e-31,4.006753956398157e-11,6.798154929189947e-33,4.0062331924106687e-11
6.799665439430754e-33,1.0384061170043424e-05,8.035661025473928e-09,1.7246276229343493e-07,6.295131638189844e-10,5.429218142323673e-31,4.005776960136487e-11,6.797966115409846e-33,6.336929314620932e-10
8.628219604492188,4.15353242715355e-05,8.228516890085302e-06,2.563763645824224e-09,6.695309306969932e-10,5.460153392055393e-31,6.482002712360213e-10,5.707635389909153e-31,4.165560257840539e-11
6.79909973277442e-33,0.00016613377374596894,7.847323485465907e-12,2.5637625356011995e-09,4.002669376501622e-11,6.797966115409846e-33,6.336929314620932e-10,8.628219604492188,4.15353242715355e-05
8.228516890085302e-06,2.563763645824224e-09,6.695309306969932e-10,5.460153392055393e-31,6.482002712360213e-10,5.707635389909153e-31,4.165560257840539e-11,6.79909973277442e-33,0.00016613377374596894
7.847323485465907e-12,2.5637625356011995e-09,6.295131638189844e-10,5.429218142323673e-31,4.005776960136487e-11,6.797966115409846e-33,4.143108425780362e-11,6.79910046745839e-33,6.337645408471815e-10
3.2914049370447174e-05,2.5783144508295663e-09,1.007221062110375e-08,0.00017660181038081646,1.0731176189437974e-05,5.614950011335517e-31,4.0971705195236297e-11,6.798725043950096e-33,6.336929314620932e-10
7.847320883380693e-12,6.409406339002999e-10,6.295131638189844e-10,5.429218142323673e-31,2.730698270170251e-06,5.615070381957041e-31,4.120351976277803e-11,6.798154194505978e-33,2.534774168339027e-09
7.847320883380693e-12,0.0001661188725847751,1.28570619040147e-07,2.72960255642829e-06,1.658119828107374e-07,5.553560994358174e-31,4.005776960136487e-11,6.797966115409846e-33,6.336929314620932e-10
7.847320016018955e-12,6.409406339002999e-10,1.1506036571518052e-05,2.744503490248462e-06,6.818743827352591e-07,5.460033021433869e-31,4.006753956398157e-11,6.798154929189947e-33,4.0062331924106687e-11
6.799665439430754e-33,1.0384061170043424e-05,8.035661025473928e-09,1.7246276229343493e-07,6.295131638189844e-10,5.429218142323673e-31,6.336909885718001e-10,5.022284810252131e-10,5.429218142323673e-31
2.730698270170251e-06,5.615070381957041e-31,4.120351976277803e-11,6.798154194505978e-33,2.534774168339027e-09,7.847320883380693e-12,0.0001661188725847751,1.28570619040147e-07,2.72960255642829e-06
1.658119828107374e-07,5.553560994358174e-31,4.005776960136487e-11,6.798154194505978e-33,6.409406339002999e-10,6.295131638189844e-10,5.429218142323673e-31,2.730698270170251e-06,5.615070381957041e-31
4.120351976277803e-11,6.798154194505978e-33,2.534774168339027e-09,7.847320883380693e-12,0.0001661188725847751,1.28570619040147e-07,2.72960255642829e-06,1.658119828107374e-07,5.553560994358174e-31
4.005776960136487e-11,6.797966115409846e-33,6.336929314620932e-10,7.847320883380693e-12,6.409406339002999e-10,1.1506036571518052e-05,2.744503490248462e-06,6.818743827352591e-07,5.460033021433869e-31
4.006753956398157e-11,6.798154929189947e-33,4.0062331924106687e-11,6.799665439430754e-33,1.0384061170043424e-05,8.035661025473928e-09,1.7246276229343493e-07,6.295131638189844e-10,5.429218142323673e-31
4.005776960136487e-11,6.797966115409846e-33,6.336929314620932e-10,8.628219604492188,4.15353242715355e-05,8.228516890085302e-06,2.563763645824224e-09,6.695309306969932e-10,5.460153392055393e-31
6.482002712360213e-10,5.707635389909153e-31,4.165560257840539e-11,6.79909973277442e-33,0.00016613377374596894,5.02228703069818e-10,5.429218142323673e-31,6.336909885718001e-10,7.847320016018955e-12
2.5637625356011995e-09,1.1506036571518052e-05,2.744503490248462e-06,6.818743827352591e-07,5.460033021433869e-31,4.006753956398157e-11,6.798154929189947e-33,4.0062331924106687e-11,6.799665439430754e-33
1.0384061170043424e-05,8.035661025473928e-09,1.7246276229343493e-07,4.002669376501622e-11,6.797966115409846e-33,6.336929314620932e-10,7.847320016018955e-12,6.409406339002999e-10,1.1506036571518052e-05
2.744503490248462e-06,6.818743827352591e-07,5.460033021433869e-31,4.006753956398157e-11,6.798154929189947e-33,4.0062331924106687e-11,6.799665439430754e-33,1.0384061170043424e-05,8.035661025473928e-09
1.7246276229343493e-07,6.295131638189844e-10,5.460033021433869e-31,4.005776960136487e-11,6.798154194505978e-33,6.336929314620932e-10,8.628219604492188,4.15353242715355e-05,8.228516890085302e-06
2.563763645824224e-09,6.695309306969932e-10,5.460153392055393e-31,6.482002712360213e-10,5.707635389909153e-31,4.165560257840539e-11,6.79909973277442e-33,0.00016613377374596894,7.847323485465907e-12
6.409406339002999e-10,6.295131638189844e-10,5.429218142323673e-31,4.005776960136487e-11,6.797966115409846e-33,4.143108425780362e-11,6.79910046745839e-33,6.337645408471815e-10,3.2914049370447174e-05
2.5783144508295663e-09,1.007221062110375e-08,0.00017660181038081646,1.0731176189437974e-05,5.614950011335517e-31,4.0971705195236297e-11,6.798725043950096e-33,6.336929314620932e-10,7.847320883380693e-12
6.409406339002999e-10,6.295131638189844e-10,5.460033021433869e-31,2.730698270170251e-06,5.615070381957041e-31,4.120351976277803e-11,6.798154194505978e-33,2.534774168339027e-09,7.847320883380693e-12
0.0001661188725847751,1.28570619040147e-07,2.72960255642829e-06,1.658119828107374e-07,5.553560994358174e-31,4.005776960136487e-11,6.797966115409846e-33,6.336929314620932e-10,7.847320016018955e-12
6.409406339002999e-10,1.1506036571518052e-05,2.744503490248462e-06,6.818743827352591e-07,5.460033021433869e-31,4.006753956398157e-11,6.798154929189947e-33,4.0062331924106687e-11,6.799665439430754e-33
1.0384061170043424e-05,8.035661025473928e-09,1.7246276229343493e-07,6.295131638189844e-10,5.429218142323673e-31,6.336909885718001e-10,7.847320016018955e-12,2.5637625356011995e-09,1.1506036571518052e-05
2.744503490248462e-06,6.818743827352591e-07,5.460033021433869e-31,4.006753956398157e-11,6.798154929189947e-33,4.0062331924106687e-11,6.799665439430754e-33,1.0384061170043424e-05,8.035661025473928e-09
1.7246276229343493e-07,6.295131638189844e-10,5.429218142323673e-31,4.005776960136487e-11,6.797966115409846e-33,6.336929314620932e-10,8.628219604492188,4.15353242715355e-05,8.228516890085302e-06
2.563763645824224e-09,6.695309306969932e-10,5.460153392055393e-31,6.482002712360213e-10,5.707635389909153e-31,4.165560257840539e-11,6.79909973277442e-33,0.00016613377374596894,7.847323485465907e-12
2.5637625356011995e-09,4.002669376501622e-11,6.797966115409846e-33,6.336929314620932e-10,8.628219604492188,4.15353242715355e-05,8.228516890085302e-06,2.563763645824224e-09,6.695309306969932e-10
5.460153392055393e-31,6.482002712360213e-10,5.707635389909153e-31,4.165560257840539e-11,6.79909973277442e-33,0.00016613377374596894,7.847323485465907e-12,6.409406339002999e-10,6.295131638189844e-10
5.460033021433869e-31,4.005776960136487e-11,6.797966115409846e-33,4.143108425780362e-11,6.79910046745839e-33,6.337645408471815e-10,3.2914049370447174e-05,2.5783144508295663e-09,1.007221062110375e-08
0.00017660181038081646,1.0731176189437974e-05,5.614950011335517e-31,4.0971705195236297e-11,6.798725043950096e-33,6.336929314620932e-10,5.022285365363643e-10,5.460033021433869e-31,4.005776960136487e-11
6.797966115409846e-33,4.143108425780362e-11,6.79910046745839e-33,6.337645408471815e-10,3.2914049370447174e-05,2.5783144508295663e-09,1.007221062110375e-08,0.00017660181038081646,1.0731176189437974e-05
5.614950011335517e-31,4.0971705195236297e-11,6.798725043950096e-33,6.336929314620932e-10,5.022285365363643e-10,5.429218142323673e-31,4.005776960136487e-11,6.798154194505978e-33,4.143108425780362e-11
6.79910046745839e-33,6.337645408471815e-10,3.2914049370447174e-05,2.5783144508295663e-09,1.007221062110375e-08,0.00017660181038081646,1.0731176189437974e-05,5.614950011335517e-31,4.0971705195236297e-11
6.798725043950096e-33,6.336929314620932e-10,7.847320883380693e-12,6.409406339002999e-10,6.295131638189844e-10,5.429218142323673e-31,2.730698270170251e-06,5.615070381957041e-31,4.120351976277803e-11
6.798154194505978e-33,2.534774168339027e-09,7.847320883380693e-12,0.0001661188725847751,1.28570619040147e-07,2.72960255642829e-06,1.658119828107374e-07,5.553560994358174e-31,4.005776960136487e-11
6.798154194505978e-33,6.336929314620932e-10,7.847320016018955e-12,6.409406339002999e-10,1.1506036571518052e-05,2.744503490248462e-06,6.818743827352591e-07,5.460033021433869e-31,4.006753956398157e-11
6.798154929189947e-33,4.0062331924106687e-11,6.799665439430754e-33,1.0384061170043424e-05,8.035661025473928e-09,1.7246276229343493e-07,4.002669376501622e-11,6.797966115409846e-33,6.336929314620932e-10
5.022285365363643e-10,5.429218142323673e-31,2.730698270170251e-06,5.615070381957041e-31,4.120351976277803e-11,6.798154194505978e-33,2.534774168339027e-09,7.847320883380693e-12,0.0001661188725847751
1.28570619040147e-07,2.72960255642829e-06,1.658119828107374e-07,5.553560994358174e-31,4.005776960136487e-11,6.798154194505978e-33,6.336929314620932e-10,7.847320016018955e-12,6.409406339002999e-10
1.1506036571518052e-05,2.744503490248462e-06,6.818743827352591e-07,5.460033021433869e-31,4.006753956398157e-11,6.798154929189947e-33,4.0062331924106687e-11,6.799665439430754e-33,1.0384061170043424e-05
8.035661025473928e-09,1.7246276229343493e-07,6.295131638189844e-10,5.460033021433869e-31,4.005776960136487e-11,6.798154194505978e-33,2.5637625356011995e-09,1.1506036571518052e-05,2.744503490248462e-06
6.818743827352591e-07,5.460033021433869e-31,4.006753956398157e-11,6.798154929189947e-33,4.0062331924106687e-11,6.799665439430754e-33,1.0384061170043424e-05,8.035661025473928e-09,1.7246276229343493e-07
4.002669376501622e-11,6.797966115409846e-33,6.336929314620932e-10,7.847320883380693e-12,6.409406339002999e-10,1.1506036571518052e-05,2.744503490248462e-06,6.818743827352591e-07,5.460033021433869e-31
4.006753956398157e-11,6.798154929189947e-33,4.0062331924106687e-11,6.799665439430754e-33,1.0384061170043424e-05,8.035661025473928e-09,1.7246276229343493e-07,4.002669376501622e-11,6.797966115409846e-33
6.336929314620932e-10,7.847320016018955e-12,6.409406339002999e-10,1.1506036571518052e-05,2.744503490248462e-06,6.818743827352591e-07,5.460033021433869e-31,4.006753956398157e-11,6.798154929189947e-33
4.0062331924106687e-11,6.799665439430754e-33,1.0384061170043424e-05,8.035661025473928e-09,1.7246276229343493e-07,6.295131638189844e-10,5.429218142323673e-31,4.005776960136487e-11,6.797966115409846e-33
6.336929314620932e-10,8.628220558166504,4.15353242715355e-05,8.228516890085302e-06,2.563763645824224e-09,6.695309306969932e-10,5.460153392055393e-31,6.482002712360213e-10,5.707635389909153e-31
4.165560257840539e-11,6.79909973277442e-33,0.00016613377374596894,5.02228703069818e-10,5.429218142323673e-31,4.005776960136487e-11,6.798154194505978e-33,6.336929314620932e-10,8.628219604492188
4.15353242715355e-05,8.228516890085302e-06,2.563763645824224e-09,6.695309306969932e-10,5.460153392055393e-31,6.482002712360213e-10,5.707635389909153e-31,4.165560257840539e-11,6.79909973277442e-33
0.00016613377374596894,5.02228703069818e-10,5.429218142323673e-31,4.005776960136487e-11,6.797966115409846e-33,6.336929314620932e-10,8.628219604492188,4.15353242715355e-05,8.228516890085302e-06
2.563763645824224e-09,6.695309306969932e-10,5.460153392055393e-31,6.482002712360213e-10,5.707635389909153e-31,4.165560257840539e-11,6.79909973277442e-33,0.00016613377374596894,7.847323485465907e-12
6.409406339002999e-10,4.002669376501622e-11,6.797966115409846e-33,6.336929314620932e-10,8.628219604492188,4.15353242715355e-05,8.228516890085302e-06,2.563763645824224e-09,6.695309306969932e-10
5.460153392055393e-31,6.482002712360213e-10,5.707635389909153e-31,4.165560257840539e-11,6.79909973277442e-33,0.00016613377374596894,7.847323485465907e-12,2.5637625356011995e-09,6.295131638189844e-10
5.429218142323673e-31,4.005776960136487e-11,6.797966115409846e-33,4.143108425780362e-11,6.79910046745839e-33,6.337645408471815e-10,3.2914049370447174e-05,2.5783144508295663e-09,1.007221062110375e-08
0.00017660181038081646,1.0731176189437974e-05,5.614950011335517e-31,4.0971705195236297e-11,6.798725043950096e-33,6.409406339002999e-10,4.002669376501622e-11,6.797966115409846e-33,6.336929314620932e-10
8.628219604492188,4.15353242715355e-05,8.228516890085302e-06,2.563763645824224e-09,6.695309306969932e-10,5.460153392055393e-31,6.482002712360213e-10,5.707635389909153e-31,4.165560257840539e-11
6.79909973277442e-33,0.00016613377374596894,7.847323485465907e-12,6.409406339002999e-10,4.002669376501622e-11,6.798154194505978e-33,6.336929314620932e-10,8.628219604492188,4.15353242715355e-05
8.228516890085302e-06,2.563763645824224e-09,6.695309306969932e-10,5.460153392055393e-31,6.482002712360213e-10,5.707635389909153e-31,4.165560257840539e-11,6.79909973277442e-33,0.00016613377374596894
7.847323485465907e-12,2.5637625356011995e-09,6.295131638189844e-10,5.460033021433869e-31,4.005776960136487e-11,6.797966115409846e-33,4.143108425780362e-11,6.79910046745839e-33,6.337645408471815e-10
3.2914049370447174e-05,2.5783144508295663e-09,1.007221062110375e-08,0.00017660181038081646,1.0731176189437974e-05,5.614950011335517e-31,4.0971705195236297e-11,6.798725043950096e-33,6.336929314620932e-10
7.847320016018955e-12,6.409406339002999e-10,6.295131638189844e-10,5.429218142323673e-31,2.730698270170251e-06,5.615070381957041e-31,4.120351976277803e-11,6.798154194505978e-33,2.534774168339027e-09
7.847320883380693e-12,0.0001661188725847751,1.28570619040147e-07,2.72960255642829e-06,1.658119828107374e-07,5.553560994358174e-31,4.005776960136487e-11,6.798154194505978e-33,6.409406339002999e-10
6.295131638189844e-10,5.460033021433869e-31,2.730698270170251e-06,5.615070381957041e-31,4.120351976277803e-11,6.798154194505978e-33,2.534774168339027e-09,7.847320883380693e-12,0.0001661188725847751
1.28570619040147e-07,2.72960255642829e-06,1.658119828107374e-07,5.553560994358174e-31,4.005776960136487e-11,6.798154194505978e-33,6.409406339002999e-10,6.295131638189844e-10,5.460033021433869e-31
2.730698270170251e-06,5.615070381957041e-31,4.120351976277803e-11,6.798154194505978e-33,2.534774168339027e-09,7.847320883380693e-12,0.0001661188725847751,1.28570619040147e-07,2.72960255642829e-06
1.658119828107374e-07,5.553560994358174e-31,4.005776960136487e-11,6.798154194505978e-33,6.336929314620932e-10,5.022285365363643e-10,5.429218142323673e-31,2.730698270170251e-06,5.615070381957041e-31
4.120351976277803e-11,6.798154194505978e-33,2.534774168339027e-09,7.847320883380693e-12,0.0001661188725847751,1.28570619040147e-07,2.72960255642829e-06,1.658119828107374e-07,5.553560994358174e-31
4.005776960136487e-11,6.797966115409846e-33,6.409406339002999e-10,6.295131638189844e-10,5.460033021433869e-31,2.730698270170251e-06,5.615070381957041e-31,4.120351976277803e-11,6.798154194505978e-33
2.534774168339027e-09,7.847320883380693e-12,0.0001661188725847751,1.28570619040147e-07,2.72960255642829e-06,1.658119828107374e-07,5.553560994358174e-31,4.005776960136487e-11,6.797966115409846e-33
6.336929314620932e-10,7.847320016018955e-12,2.5637625356011995e-09,1.1506036571518052e-05,2.744503490248462e-06,6.818743827352591e-07,5.460033021433869e-31,4.006753956398157e-11,6.798154929189947e-33
4.0062331924106687e-11,6.799665439430754e-33,1.0384061170043424e-05,8.035661025473928e-09,1.7246276229343493e-07,6.295131638189844e-10,5.460033021433869e-31,6.336909885718001e-10,7.847320883380693e-12
6.409406339002999e-10,1.1506036571518052e-05,2.744503490248462e-06,6.818743827352591e-07,5.460033021433869e-31,4.006753956398157e-11,6.798154929189947e-33,4.0062331924106687e-11,6.799665439430754e-33
1.0384061170043424e-05,8.035661025473928e-09,1.7246276229343493e-07,6.295131638189844e-10,5.429218142323673e-31,4.005776960136487e-11,6.797966115409846e-33,6.336929314620932e-10,8.628219604492188
4.15353242715355e-05,8.228516890085302e-06,2.563763645824224e-09,6.695309306969932e-10,5.460153392055393e-31,6.482002712360213e-10,5.707635389909153e-31,4.165560257840539e-11,6.79909973277442e-33
0.00016613377374596894,7.847323485465907e-12,6.409406339002999e-10,4.002669376501622e-11,6.797966115409846e-33,6.409406339002999e-10,1.1506036571518052e-05,2.744503490248462e-06,6.818743827352591e-07
5.460033021433869e-31,4.006753956398157e-11,6.798154929189947e-33,4.0062331924106687e-11,6.799665439430754e-33,1.0384061170043424e-05,8.035661025473928e-09,1.7246276229343493e-07,4.002669376501622e-11
6.797966115409846e-33,6.409406339002999e-10,6.295131638189844e-10,5.429218142323673e-31,2.730698270170251e-06,5.615070381957041e-31,4.120351976277803e-11,6.798154194505978e-33,2.534774168339027e-09
7.847320883380693e-12,0.0001661188725847751,1.28570619040147e-07,2.72960255642829e-06,1.658119828107374e-07,5.553560994358174e-31,4.005776960136487e-11,6.798154194505978e-33,6.336929314620932e-10
7.847320883380693e-12,2.5637625356011995e-09,1.1506036571518052e-05,2.744503490248462e-06,6.818743827352591e-07,5.460033021433869e-31,4.006753956398157e-11,6.798154929189947e-33,4.0062331924106687e-11
6.799665439430754e-33,1.0384061170043424e-05,8.035661025473928e-09,1.7246276229343493e-07,6.295131638189844e-10,5.429218142323673e-31,6.336909885718001e-10,5.022285365363643e-10,5.429218142323673e-31
2.730698270170251e-06,5.615070381957041e-31,4.120351976277803e-11,6.798154194505978e-33,2.534774168339027e-09,7.847320883380693e-12,0.0001661188725847751,1.28570619040147e-07,2.72960255642829e-06
1.658119828107374e-07,5.553560994358174e-31,4.005776960136487e-11,6.797966115409846e-33,6.336929314620932e-10,5.022285365363643e-10,5.429218142323673e-31,2.730698270170251e-06,5.615070381957041e-31
4.120351976277803e-11,6.798154194505978e-33,2.534774168339027e-09,7.847320883380693e-12,0.0001661188725847751,1.28570619040147e-07,2.72960255642829e-06,1.658119828107374e-07,5.553560994358174e-31
4.005776960136487e-11,6.797966115409846e-33,6.336929314620932e-10,7.847320883380693e-12,6.409406339002999e-10,1.1506036571518052e-05,2.744503490248462e-06,6.818743827352591e-07,5.460033021433869e-31
4.006753956398157e-11,6.798154929189947e-33,4.0062331924106687e-11,6.799665439430754e-33,1.0384061170043424e-05,8.035661025473928e-09,1.7246276229343493e-07,6.295131638189844e-10,5.429218142323673e-31
4.005776960136487e-11,6.797966115409846e-33,6.336929314620932e-10,8.628219604492188,4.15353242715355e-05,8.228516890085302e-06,2.563763645824224e-09,6.695309306969932e-10,5.460153392055393e-31
6.482002712360213e-10,5.707635389909153e-31,4.165560257840539e-11,6.79909973277442e-33,0.00016613377374596894,7.847323485465907e-12,6.409406339002999e-10,6.295131638189844e-10,5.429218142323673e-31
4.005776960136487e-11,6.797966115409846e-33,4.143108425780362e-11,6.79910046745839e-33,6.337645408471815e-10,3.2914049370447174e-05,2.5783144508295663e-09,1.007221062110375e-08,0.00017660181038081646
1.0731176189437974e-05,5.614950011335517e-31,4.0971705195236297e-11,6.798725043950096e-33,6.336929314620932e-10,7.847320016018955e-12,6.409406339002999e-10,6.295131638189844e-10,5.460033021433869e-31
2.730698270170251e-06,5.615070381957041e-31,4.120351976277803e-11,6.798154194505978e-33,2.534774168339027e-09,7.847320883380693e-12,0.0001661188725847751,1.28570619040147e-07,2.72960255642829e-06
1.658119828107374e-07,5.553560994358174e-31,4.005776960136487e-11,6.797966115409846e-33,6.409406339002999e-10,4.002669376501622e-11,6.797966115409846e-33,4.143108425780362e-11,6.79910046745839e-33
6.337645408471815e-10,3.2914049370447174e-05,2.5783144508295663e-09,1.007221062110375e-08,0.00017660181038081646,1.0731176189437974e-05,5.614950011335517e-31,4.0971705195236297e-11,6.798725043950096e-33
6.336929314620932e-10,5.022285365363643e-10,5.460033021433869e-31,6.336909885718001e-10,8.628219604492188,4.15353242715355e-05,8.228516890085302e-06,2.563763645824224e-09,6.695309306969932e-10
5.460153392055393e-31,6.482002712360213e-10,5.707635389909153e-31,4.165560257840539e-11,6.79909973277442e-33,0.00016613377374596894,5.02228703069818e-10,5.429218142323673e-31,6.336909885718001e-10
5.022284810252131e-10,5.429218142323673e-31,2.730698270170251e-06,5.615070381957041e-31,4.120351976277803e-11,6.798154194505978e-33,2.534774168339027e-09,7.847320883380693e-12,0.0001661188725847751
1.28570619040147e-07,2.72960255642829e-06,1.658119828107374e-07,5.553560994358174e-31,4.005776960136487e-11,6.798154194505978e-33,6.336929314620932e-10,7.847320016018955e-12,6.409406339002999e-10
1.1506036571518052e-05,2.744503490248462e-06,6.818743827352591e-07,5.460033021433869e-31,4.006753956398157e-11,6.798154929189947e-33,4.0062331924106687e-11,6.799665439430754e-33,1.0384061170043424e-05
8.035661025473928e-09,1.7246276229343493e-07,6.295131638189844e-10,5.429218142323673e-31,4.005776960136487e-11,6.798154194505978e-33,6.336929314620932e-10,8.628220558166504,4.15353242715355e-05
8.228516890085302e-06,2.563763645824224e-09,6.695309306969932e-10,5.460153392055393e-31,6.482002712360213e-10,5.707635389909153e-31,4.165560257840539e-11,6.79909973277442e-33,0.00016613377374596894
7.847323485465907e-12,1.0255050142404798e-08,4.002669376501622e-11,6.797966115409846e-33,6.336929314620932e-10,8.628219604492188,4.15353242715355e-05,8.228516890085302e-06,2.563763645824224e-09
6.695309306969932e-10,5.460153392055393e-31,6.482002712360213e-10,5.707635389909153e-31,4.165560257840539e-11,6.79909973277442e-33,0.00016613377374596894,5.02228703069818e-10,5.429218142323673e-31
4.005776960136487e-11,6.797966115409846e-33,6.336929314620932e-10,8.628220558166504,4.15353242715355e-05,8.228516890085302e-06,2.563763645824224e-09,6.695309306969932e-10,5.460153392055393e-31
6.482002712360213e-10,5.707635389909153e-31,4.165560257840539e-11,6.79909973277442e-33,0.00016613377374596894,7.847323485465907e-12,2.5637625356011995e-09,6.295131638189844e-10,5.429218142323673e-31
6.336909885718001e-10,8.628219604492188,4.15353242715355e-05,8.228516890085302e-06,2.563763645824224e-09,6.695309306969932e-10,5.460153392055393e-31,6.482002712360213e-10,5.707635389909153e-31
4.165560257840539e-11,6.79909973277442e-33,0.00016613377374596894,7.847323485465907e-12,6.409406339002999e-10,6.295131638189844e-10,5.429218142323673e-31,6.336909885718001e-10,8.628219604492188
4.15353242715355e-05,8.228516890085302e-06,2.563763645824224e-09,6.695309306969932e-10,5.460153392055393e-31,6.482002712360213e-10,5.707635389909153e-31,4.165560257840539e-11,6.79909973277442e-33
0.00016613377374596894,7.847323485465907e-12,6.409406339002999e-10,4.002669376501622e-11,6.797966115409846e-33,6.336929314620932e-10,8.628220558166504,4.15353242715355e-05,8.228516890085302e-06
2.563763645824224e-09,6.695309306969932e-10,5.460153392055393e-31,6.482002712360213e-10,5.707635389909153e-31,4.165560257840539e-11,6.79909973277442e-33,0.00016613377374596894,7.847323485465907e-12
2.5637625356011995e-09,6.295131638189844e-10,5.460033021433869e-31,4.005776960136487e-11,6.797966115409846e-33,4.143108425780362e-11,6.79910046745839e-33,6.337645408471815e-10,3.2914049370447174e-05
2.5783144508295663e-09,1.007221062110375e-08,0.00017660181038081646,1.0731176189437974e-05,5.614950011335517e-31,4.0971705195236297e-11,6.798725043950096e-33,6.336929314620932e-10,5.022285365363643e-10
5.429218142323673e-31,4.005776960136487e-11,6.797966115409846e-33,4.143108425780362e-11,6.79910046745839e-33,6.337645408471815e-10,3.2914049370447174e-05,2.5783144508295663e-09,1.007221062110375e-08
0.00017660181038081646,1.0731176189437974e-05,5.614950011335517e-31,4.0971705195236297e-11,6.798725043950096e-33,6.336929314620932e-10,7.847320883380693e-12,2.5637625356011995e-09,6.295131638189844e-10
5.460033021433869e-31,2.730698270170251e-06,5.615070381957041e-31,4.120351976277803e-11,6.798154194505978e-33,2.534774168339027e-09,7.847320883380693e-12,0.0001661188725847751,1.28570619040147e-07
2.72960255642829e-06,1.658119828107374e-07,5.553560994358174e-31,4.005776960136487e-11,6.797966115409846e-33,6.409406339002999e-10,6.295131638189844e-10,5.429218142323673e-31,2.730698270170251e-06
5.615070381957041e-31,4.120351976277803e-11,6.798154194505978e-33,2.534774168339027e-09,7.847320883380693e-12,0.0001661188725847751,1.28570619040147e-07,2.72960255642829e-06,1.658119828107374e-07
5.553560994358174e-31,6.336909885718001e-10,5.022284810252131e-10,5.429218142323673e-31,6.336909885718001e-10,8.628219604492188,4.15353242715355e-05,8.228516890085302e-06,2.563763645824224e-09
6.695309306969932e-10,5.460153392055393e-31,6.482002712360213e-10,5.707635389909153e-31,4.165560257840539e-11,6.79909973277442e-33,0.00016613377374596894,7.847323485465907e-12,6.409406339002999e-10
6.295131638189844e-10,5.429218142323673e-31,4.005776960136487e-11,6.798154194505978e-33,4.143108425780362e-11,6.79910046745839e-33,6.337645408471815e-10,3.2914049370447174e-05,2.5783144508295663e-09
1.007221062110375e-08,0.00017660181038081646,1.0731176189437974e-05,5.614950011335517e-31,4.0971705195236297e-11,6.798725043950096e-33,6.409406339002999e-10,6.295131638189844e-10,5.460033021433869e-31
4.005776960136487e-11,6.797966115409846e-33,4.143108425780362e-11,6.79910046745839e-33,6.337645408471815e-10,3.2914049370447174e-05,2.5783144508295663e-09,1.007221062110375e-08,0.00017660181038081646
1.0731176189437974e-05,5.614950011335517e-31,4.0971705195236297e-11,6.798725043950096e-33,6.336929314620932e-10,5.022284810252131e-10,5.460033021433869e-31,6.336909885718001e-10,8.628219604492188
4.15353242715355e-05,8.228516890085302e-06,2.563763645824224e-09,6.695309306969932e-10,5.460153392055393e-31,6.482002712360213e-10,5.707635389909153e-31,4.165560257840539e-11,6.79909973277442e-33
0.00016613377374596894,7.847323485465907e-12,6.409406339002999e-10,4.002669376501622e-11,6.797966115409846e-33,6.336929314620932e-10,8.628219604492188,4.15353242715355e-05,8.228516890085302e-06
2.563763645824224e-09,6.695309306969932e-10,5.460153392055393e-31,6.482002712360213e-10,5.707635389909153e-31,4.165560257840539e-11,6.79909973277442e-33,0.00016613377374596894,7.847323485465907e-12
6.409406339002999e-10,6.295131638189844e-10,5.429218142323673e-31,4.005776960136487e-11,6.797966115409846e-33,4.143108425780362e-11,6.79910046745839e-33,6.337645408471815e-10,3.2914049370447174e-05
2.5783144508295663e-09,1.007221062110375e-08,0.00017660181038081646,1.0731176189437974e-05,5.614950011335517e-31,4.0971705195236297e-11,6.798725043950096e-33,6.336929314620932e-10,5.022284810252131e-10
5.429218142323673e-31,6.336909885718001e-10,8.628219604492188,4.15353242715355e-05,8.228516890085302e-06,2.563763645824224e-09,6.695309306969932e-10,5.460153392055393e-31,6.482002712360213e-10
5.707635389909153e-31,4.165560257840539e-11,6.79909973277442e-33,0.00016613377374596894,7.847323485465907e-12,6.409406339002999e-10,6.295131638189844e-10,5.429218142323673e-31,4.005776960136487e-11
6.797966115409846e-33,4.143108425780362e-11,6.79910046745839e-33,6.337645408471815e-10,3.2914049370447174e-05,2.5783144508295663e-09,1.007221062110375e-08,0.00017660181038081646,1.0731176189437974e-05
5.614950011335517e-31,4.0971705195236297e-11,6.798725043950096e-33,6.336929314620932e-10,7.847320016018955e-12,6.409406339002999e-10,4.002669376501622e-11,6.797966115409846e-33,4.143108425780362e-11
6.79910046745839e-33,6.337645408471815e-10,3.2914049370447174e-05,2.5783144508295663e-09,1.007221062110375e-08,0.00017660181038081646,1.0731176189437974e-05,5.614950011335517e-31,4.0971705195236297e-11
6.798725043950096e-33,6.336929314620932e-10,7.847320016018955e-12,6.409406339002999e-10,6.295131638189844e-10,5.460033021433869e-31,2.730698270170251e-06,5.615070381957041e-31,4.120351976277803e-11
6.798154194505978e-33,2.534774168339027e-09,7.847320883380693e-12,0.0001661188725847751,1.28570619040147e-07,2.72960255642829e-06,1.658119828107374e-07,5.553560994358174e-31,6.336909885718001e-10
5.022284810252131e-10,5.460033021433869e-31,4.005776960136487e-11,6.797966115409846e-33,4.143108425780362e-11,6.79910046745839e-33,6.337645408471815e-10,3.2914049370447174e-05,2.5783144508295663e-09
1.007221062110375e-08,0.00017660181038081646,1.0731176189437974e-05,5.614950011335517e-31,4.0971705195236297e-11,6.798725043950096e-33,6.409406339002999e-10,6.295131638189844e-10,5.429218142323673e-31
6.336909885718001e-10,8.628219604492188,4.15353242715355e-05,8.228516890085302e-06,2.563763645824224e-09,6.695309306969932e-10,5.460153392055393e-31,6.482002712360213e-10,5.707635389909153e-31
4.165560257840539e-11,6.79909973277442e-33,0.00016613377374596894,5.02228703069818e-10,5.429218142323673e-31,4.005776960136487e-11,6.797966115409846e-33,6.336929314620932e-10,8.628219604492188
4.15353242715355e-05,8.228516890085302e-06,2.563763645824224e-09,6.695309306969932e-10,5.460153392055393e-31,6.482002712360213e-10,5.707635389909153e-31,4.165560257840539e-11,6.79909973277442e-33
0.00016613377374596894,7.847323485465907e-12,2.5637625356011995e-09,4.002669376501622e-11,6.797966115409846e-33,6.336929314620932e-10,8.628219604492188,4.15353242715355e-05,8.228516890085302e-06
2.563763645824224e-09,6.695309306969932e-10,5.460153392055393e-31,6.482002712360213e-10,5.707635389909153e-31,4.165560257840539e-11,6.79909973277442e-33,0.00016613377374596894,7.847323485465907e-12
6.409406339002999e-10,4.002669376501622e-11,6.797966115409846e-33,6.336929314620932e-10,8.628219604492188,4.15353242715355e-05,8.228516890085302e-06,2.563763645824224e-09,6.695309306969932e-10
5.460153392055393e-31,6.482002712360213e-10,5.707635389909153e-31,4.165560257840539e-11,6.79909973277442e-33,0.00016613377374596894,7.847323485465907e-12,6.409406339002999e-10,4.002669376501622e-11
6.797966115409846e-33,6.336929314620932e-10,8.628220558166504,4.15353242715355e-05,8.228516890085302e-06,2.563763645824224e-09,6.695309306969932e-10,5.460153392055393e-31,6.482002712360213e-10
5.707635389909153e-31,4.165560257840539e-11,6.79909973277442e-33,0.00016613377374596894,7.847323485465907e-12,2.5637625356011995e-09,6.295131638189844e-10,5.460033021433869e-31,4.005776960136487e-11
6.798154194505978e-33,4.143108425780362e-11,6.79910046745839e-33,6.337645408471815e-10,3.2914049370447174e-05,2.5783144508295663e-09,1.007221062110375e-08,0.00017660181038081646,1.0731176189437974e-05
5.614950011335517e-31,4.0971705195236297e-11,6.798725043950096e-33,6.409406339002999e-10,6.295131638189844e-10,5.429218142323673e-31,4.005776960136487e-11,6.797966115409846e-33,4.143108425780362e-11
6.79910046745839e-33,6.337645408471815e-10,3.2914049370447174e-05,2.5783144508295663e-09,1.007221062110375e-08,0.00017660181038081646,1.0731176189437974e-05,5.614950011335517e-31,4.0971705195236297e-11
6.798725043950096e-33,6.336929314620932e-10,7.847320883380693e-12,6.409406339002999e-10,4.002669376501622e-11,6.798154194505978e-33,4.143108425780362e-11,6.79910046745839e-33,6.337645408471815e-10
3.2914049370447174e-05,2.5783144508295663e-09,1.007221062110375e-08,0.00017660181038081646,1.0731176189437974e-05,5.614950011335517e-31,4.0971705195236297e-11,6.798725043950096e-33,6.336929314620932e-10
5.022284810252131e-10,5.429218142323673e-31,6.336909885718001e-10,8.628219604492188,4.15353242715355e-05,8.228516890085302e-06,2.563763645824224e-09,6.695309306969932e-10,5.460153392055393e-31
6.482002712360213e-10,5.707635389909153e-31,4.165560257840539e-11,6.79909973277442e-33,0.00016613377374596894,7.847323485465907e-12,6.409406339002999e-10,4.002669376501622e-11,6.797966115409846e-33
6.409406339002999e-10,1.1506036571518052e-05,2.744503490248462e-06,6.818743827352591e-07,5.460033021433869e-31,4.006753956398157e-11,6.798154929189947e-33,4.0062331924106687e-11,6.799665439430754e-33
1.0384061170043424e-05,8.035661025473928e-09,1.7246276229343493e-07,6.295131638189844e-10,5.460033021433869e-31,4.005776960136487e-11,6.797966115409846e-33,6.336929314620932e-10,8.628219604492188
4.15353242715355e-05,8.228516890085302e-06,2.563763645824224e-09,6.695309306969932e-10,5.460153392055393e-31,6.482002712360213e-10,5.707635389909153e-31,4.165560257840539e-11,6.79909973277442e-33
0.00016613377374596894,5.02228703069818e-10,5.429218142323673e-31,4.005776960136487e-11,6.797966115409846e-33,6.336929314620932e-10,8.628219604492188,4.15353242715355e-05,8.228516890085302e-06
2.563763645824224e-09,6.695309306969932e-10,5.460153392055393e-31,6.482002712360213e-10,5.707635389909153e-31,4.165560257840539e-11,6.79909973277442e-33,0.00016613377374596894,7.847323485465907e-12
6.409406339002999e-10,6.295131638189844e-10,5.429218142323673e-31,4.005776960136487e-11,6.797966115409846e-33,4.143108425780362e-11,6.79910046745839e-33,6.337645408471815e-10,3.2914049370447174e-05
2.5783144508295663e-09,1.007221062110375e-08,0.00017660181038081646,1.0731176189437974e-05,5.614950011335517e-31,4.0971705195236297e-11,6.798725043950096e-33,6.336929314620932e-10,7.847320016018955e-12
2.5637625356011995e-09,6.295131638189844e-10,5.429218142323673e-31,2.730698270170251e-06,5.615070381957041e-31,4.120351976277803e-11,6.798154194505978e-33,2.534774168339027e-09,7.847320883380693e-12
0.0001661188725847751,1.28570619040147e-07,2.72960255642829e-06,1.658119828107374e-07,5.553560994358174e-31,4.005776960136487e-11,6.797966115409846e-33,6.336929314620932e-10,7.847320883380693e-12
6.409406339002999e-10,1.1506036571518052e-05,2.744503490248462e-06,6.818743827352591e-07,5.460033021433869e-31,4.006753956398157e-11,6.798154929189947e-33,4.0062331924106687e-11,6.799665439430754e-33
1.0384061170043424e-05,8.035661025473928e-09,1.7246276229343493e-07,6.295131638189844e-10,5.429218142323673e-31,4.005776960136487e-11,6.797966115409846e-33,6.336929314620932e-10,8.628219604492188
4.15353242715355e-05,8.228516890085302e-06,2.563763645824224e-09,6.695309306969932e-10,5.460153392055393e-31,6.482002712360213e-10,5.707635389909153e-31,4.165560257840539e-11,6.79909973277442e-33
0.00016613377374596894,7.847323485465907e-12,6.409406339002999e-10,6.295131638189844e-10,5.429218142323673e-31,4.005776960136487e-11,6.797966115409846e-33,4.143108425780362e-11,6.79910046745839e-33
6.337645408471815e-10,3.2914049370447174e-05,2.5783144508295663e-09,1.007221062110375e-08,0.00017660181038081646,1.0731176189437974e-05,5.614950011335517e-31,4.0971705195236297e-11,6.798725043950096e-33
6.336929314620932e-10,7.847320016018955e-12,6.409406339002999e-10,6.295131638189844e-10,5.429218142323673e-31,2.730698270170251e-06,5.615070381957041e-31,4.120351976277803e-11,6.798154194505978e-33
2.534774168339027e-09,7.847320883380693e-12,0.0001661188725847751,1.28570619040147e-07,2.72960255642829e-06,1.658119828107374e-07,5.553560994358174e-31,6.336909885718001e-10,7.847320016018955e-12
6.409406339002999e-10,6.295131638189844e-10,5.429218142323673e-31,2.730698270170251e-06,5.615070381957041e-31,4.120351976277803e-11,6.798154194505978e-33,2.534774168339027e-09,7.847320883380693e-12
0.0001661188725847751,1.28570619040147e-07,2.72960255642829e-06,1.658119828107374e-07,5.553560994358174e-31,6.336909885718001e-10,7.847320016018955e-12,6.409406339002999e-10,6.295131638189844e-10
5.429218142323673e-31,2.730698270170251e-06,5.615070381957041e-31,4.120351976277803e-11,6.798154194505978e-33,2.534774168339027e-09,7.847320883380693e-12,0.0001661188725847751,1.28570619040147e-07
2.72960255642829e-06,1.658119828107374e-07,5.553560994358174e-31,6.336909885718001e-10,5.022284810252131e-10,5.429218142323673e-31,4.005776960136487e-11,6.797966115409846e-33,4.143108425780362e-11
6.79910046745839e-33,6.337645408471815e-10,3.2914049370447174e-05,2.5783144508295663e-09,1.007221062110375e-08,0.00017660181038081646,1.0731176189437974e-05,5.614950011335517e-31,4.0971705195236297e-11
6.798725043950096e-33,6.336929314620932e-10,7.847320883380693e-12,2.5637625356011995e-09,6.295131638189844e-10,5.429218142323673e-31,2.730698270170251e-06,5.615070381957041e-31,4.120351976277803e-11
6.798154194505978e-33,2.534774168339027e-09,7.847320883380693e-12,0.0001661188725847751,1.28570619040147e-07,2.72960255642829e-06,1.658119828107374e-07,5.553560994358174e-31,6.336909885718001e-10
7.847320016018955e-12,2.5637625356011995e-09,6.295131638189844e-10,5.429218142323673e-31,2.730698270170251e-06,5.615070381957041e-31,4.120351976277803e-11,6.798154194505978e-33,2.534774168339027e-09
7.847320883380693e-12,0.0001661188725847751,1.28570619040147e-07,2.72960255642829e-06,1.658119828107374e-07,5.553560994358174e-31,6.336909885718001e-10,7.847320016018955e-12,6.409406339002999e-10
6.295131638189844e-10,5.460033021433869e-31,2.730698270170251e-06,5.615070381957041e-31,4.120351976277803e-11,6.798154194505978e-33,2.534774168339027e-09,7.847320883380693e-12,0.0001661188725847751
1.28570619040147e-07,2.72960255642829e-06,1.658119828107374e-07,5.553560994358174e-31,4.005776960136487e-11,6.798154194505978e-33,6.336929314620932e-10,7.847320016018955e-12,6.409406339002999e-10
1.1506036571518052e-05,2.744503490248462e-06,6.818743827352591e-07,5.460033021433869e-31,4.006753956398157e-11,6.798154929189947e-33,4.0062331924106687e-11,6.799665439430754e-33,1.0384061170043424e-05
8.035661025473928e-09,1.7246276229343493e-07,6.295131638189844e-10,5.429218142323673e-31,4.005776960136487e-11,6.797966115409846e-33,6.336929314620932e-10,8.628219604492188,4.15353242715355e-05
8.228516890085302e-06,2.563763645824224e-09,6.695309306969932e-10,5.460153392055393e-31,6.482002712360213e-10,5.707635389909153e-31,4.165560257840539e-11,6.79909973277442e-33,0.00016613377374596894
5.02228703069818e-10,5.429218142323673e-31,4.005776960136487e-11,6.797966115409846e-33,6.336929314620932e-10,8.628220558166504,4.15353242715355e-05,8.228516890085302e-06,2.563763645824224e-09
6.695309306969932e-10,5.460153392055393e-31,6.482002712360213e-10,5.707635389909153e-31,4.165560257840539e-11,6.79909973277442e-33,0.00016613377374596894,7.847323485465907e-12,6.409406339002999e-10
6.295131638189844e-10,5.429218142323673e-31,4.005776960136487e-11,6.797966115409846e-33,4.143108425780362e-11,6.79910046745839e-33,6.337645408471815e-10,3.2914049370447174e-05,2.5783144508295663e-09
1.007221062110375e-08,0.00017660181038081646,1.0731176189437974e-05,5.614950011335517e-31,4.0971705195236297e-11,6.798725043950096e-33,6.409406339002999e-10,6.295131638189844e-10,5.460033021433869e-31
6.336909885718001e-10,8.628219604492188,4.15353242715355e-05,8.228516890085302e-06,2.563763645824224e-09,6.695309306969932e-10,5.460153392055393e-31,6.482002712360213e-10,5.707635389909153e-31
4.165560257840539e-11,6.79909973277442e-33,0.00016613377374596894,7.847323485465907e-12,6.409406339002999e-10,4.002669376501622e-11,6.797966115409846e-33,6.336929314620932e-10,8.628219604492188
4.15353242715355e-05,8.228516890085302e-06,2.563763645824224e-09,6.695309306969932e-10,5.460153392055393e-31,6.482002712360213e-10,5.707635389909153e-31,4.165560257840539e-11,6.79909973277442e-33
0.00016613377374596894,5.02228703069818e-10,5.429218142323673e-31,4.005776960136487e-11,6.797966115409846e-33,6.336929314620932e-10,8.628219604492188,4.15353242715355e-05,8.228516890085302e-06
2.563763645824224e-09,6.695309306969932e-10,5.460153392055393e-31,6.482002712360213e-10,5.707635389909153e-31,4.165560257840539e-11,6.79909973277442e-33,0.00016613377374596894,7.847323485465907e-12
6.409406339002999e-10,6.295131638189844e-10,5.429218142323673e-31,6.336909885718001e-10,8.628219604492188,4.15353242715355e-05,8.228516890085302e-06,2.563763645824224e-09,6.695309306969932e-10
5.460153392055393e-31,6.482002712360213e-10,5.707635389909153e-31,4.165560257840539e-11,6.79909973277442e-33,0.00016613377374596894,7.847323485465907e-12,6.409406339002999e-10,4.002669376501622e-11
6.798154194505978e-33,6.409406339002999e-10,1.1506036571518052e-05,2.744503490248462e-06,6.818743827352591e-07,5.460033021433869e-31,4.006753956398157e-11,6.798154929189947e-33,4.0062331924106687e-11
6.799665439430754e-33,1.0384061170043424e-05,8.035661025473928e-09,1.7246276229343493e-07,6.295131638189844e-10,5.429218142323673e-31,6.336909885718001e-10,7.847320016018955e-12,6.409406339002999e-10
1.1506036571518052e-05,2.744503490248462e-06,6.818743827352591e-07,5.460033021433869e-31,4.006753956398157e-11,6.798154929189947e-33,4.0062331924106687e-11,6.799665439430754e-33,1.0384061170043424e-05
8.035661025473928e-09,1.7246276229343493e-07,6.295131638189844e-10,5.429218142323673e-31,4.005776960136487e-11,6.797966115409846e-33,6.336929314620932e-10,8.628219604492188,4.15353242715355e-05
8.228516890085302e-06,2.563763645824224e-09,6.695309306969932e-10,5.460153392055393e-31,6.482002712360213e-10,5.707635389909153e-31,4.165560257840539e-11,6.79909973277442e-33,0.00016613377374596894
5.02228703069818e-10,5.429218142323673e-31,6.336909885718001e-10,5.022284810252131e-10,5.429218142323673e-31,2.730698270170251e-06,5.615070381957041e-31,4.120351976277803e-11,6.798154194505978e-33
2.534774168339027e-09,7.847320883380693e-12,0.0001661188725847751,1.28570619040147e-07,2.72960255642829e-06,1.658119828107374e-07,5.553560994358174e-31,4.005776960136487e-11,6.798154194505978e-33
6.336929314620932e-10,7.847320883380693e-12,2.5637625356011995e-09,1.1506036571518052e-05,2.744503490248462e-06,6.818743827352591e-07,5.460033021433869e-31,4.006753956398157e-11,6.798154929189947e-33
4.0062331924106687e-11,6.799665439430754e-33,1.0384061170043424e-05,8.035661025473928e-09,1.7246276229343493e-07,6.295131638189844e-10,5.460033021433869e-31,6.336909885718001e-10,7.847320883380693e-12
6.409406339002999e-10,1.1506036571518052e-05,2.744503490248462e-06,6.818743827352591e-07,5.460033021433869e-31,4.006753956398157e-11,6.798154929189947e-33,4.0062331924106687e-11,6.799665439430754e-33
1.0384061170043424e-05,8.035661025473928e-09,1.7246276229343493e-07,6.295131638189844e-10,5.429218142323673e-31,4.005776960136487e-11,6.797966115409846e-33,6.336929314620932e-10,8.628219604492188
4.15353242715355e-05,8.228516890085302e-06,2.563763645824224e-09,6.695309306969932e-10,5.460153392055393e-31,6.482002712360213e-10,5.707635389909153e-31,4.165560257840539e-11,6.79909973277442e-33
0.00016613377374596894,7.847323485465907e-12,2.5637625356011995e-09,4.002669376501622e-11,6.797966115409846e-33,6.336929314620932e-10,8.628220558166504,4.15353242715355e-05,8.228516890085302e-06
2.563763645824224e-09,6.695309306969932e-10,5.460153392055393e-31,6.482002712360213e-10,5.707635389909153e-31,4.165560257840539e-11,6.79909973277442e-33,0.00016613377374596894,5.02228703069818e-10
5.429218142323673e-31,4.005776960136487e-11,6.797966115409846e-33,6.336929314620932e-10,8.628220558166504,4.15353242715355e-05,8.228516890085302e-06,2.563763645824224e-09,6.695309306969932e-10
5.460153392055393e-31,6.482002712360213e-10,5.707635389909153e-31,4.165560257840539e-11,6.79909973277442e-33,0.00016613377374596894,7.847323485465907e-12,6.409406339002999e-10,6.295131638189844e-10
5.429218142323673e-31,4.005776960136487e-11,6.797966115409846e-33,4.143108425780362e-11,6.79910046745839e-33,6.337645408471815e-10,3.2914049370447174e-05,2.5783144508295663e-09,1.007221062110375e-08
0.00017660181038081646,1.0731176189437974e-05,5.614950011335517e-31,4.0971705195236297e-11,6.798725043950096e-33,2.5637625356011995e-09,6.295131638189844e-10,5.429218142323673e-31,4.005776960136487e-11
6.797966115409846e-33,4.143108425780362e-11,6.79910046745839e-33,6.337645408471815e-10,3.2914049370447174e-05,2.5783144508295663e-09,1.007221062110375e-08,0.00017660181038081646,1.0731176189437974e-05
5.614950011335517e-31,4.0971705195236297e-11,6.798725043950096e-33,6.336929314620932e-10,5.022285365363643e-10,5.429218142323673e-31,4.005776960136487e-11,6.798154194505978e-33,4.143108425780362e-11
6.79910046745839e-33,6.337645408471815e-10,3.2914049370447174e-05,2.5783144508295663e-09,1.007221062110375e-08,0.00017660181038081646,1.0731176189437974e-05,5.614950011335517e-31,4.0971705195236297e-11
6.798725043950096e-33,6.336929314620932e-10,7.847320883380693e-12,2.5637625356011995e-09,6.295131638189844e-10,5.460033021433869e-31,2.730698270170251e-06,5.615070381957041e-31,4.120351976277803e-11
6.798154194505978e-33,2.534774168339027e-09,7.847320883380693e-12,0.0001661188725847751,1.28570619040147e-07,2.72960255642829e-06,1.658119828107374e-07,5.553560994358174e-31,4.005776960136487e-11
6.797966115409846e-33,6.409406339002999e-10,6.295131638189844e-10,5.429218142323673e-31,2.730698270170251e-06,5.615070381957041e-31,4.120351976277803e-11,6.798154194505978e-33,2.534774168339027e-09
7.847320883380693e-12,0.0001661188725847751,1.28570619040147e-07,2.72960255642829e-06,1.658119828107374e-07,5.553560994358174e-31,4.005776960136487e-11,6.798154194505978e-33,6.336929314620932e-10
7.847320016018955e-12,6.409406339002999e-10,1.1506036571518052e-05,2.744503490248462e-06,6.818743827352591e-07,5.460033021433869e-31,4.006753956398157e-11,6.798154929189947e-33,4.0062331924106687e-11
6.799665439430754e-33,1.0384061170043424e-05,8.035661025473928e-09,1.7246276229343493e-07,6.295131638189844e-10,5.460033021433869e-31,6.336909885718001e-10,7.847320883380693e-12,6.409406339002999e-10
1.1506036571518052e-05,2.744503490248462e-06,6.818743827352591e-07,5.460033021433869e-31,4.006753956398157e-11,6.798154929189947e-33,4.0062331924106687e-11,6.799665439430754e-33,1.0384061170043424e-05
8.035661025473928e-09,1.7246276229343493e-07,6.295131638189844e-10,5.429218142323673e-31,4.005776960136487e-11,6.797966115409846e-33,6.336929314620932e-10,8.628219604492188,4.15353242715355e-05
8.228516890085302e-06,2.563763645824224e-09,6.695309306969932e-10,5.460153392055393e-31,6.482002712360213e-10,5.707635389909153e-31,4.165560257840539e-11,6.79909973277442e-33,0.00016613377374596894
7.847323485465907e-12,2.5637625356011995e-09,6.295131638189844e-10,5.429218142323673e-31,4.005776960136487e-11,6.798154194505978e-33,4.143108425780362e-11,6.79910046745839e-33,6.337645408471815e-10
3.2914049370447174e-05,2.5783144508295663e-09,1.007221062110375e-08,0.00017660181038081646,1.0731176189437974e-05,5.614950011335517e-31,4.0971705195236297e-11,6.798725043950096e-33,6.336929314620932e-10
5.022284810252131e-10,5.460033021433869e-31,6.336909885718001e-10,8.628219604492188,4.15353242715355e-05,8.228516890085302e-06,2.563763645824224e-09,6.695309306969932e-10,5.460153392055393e-31
6.482002712360213e-10,5.707635389909153e-31,4.165560257840539e-11,6.79909973277442e-33,0.00016613377374596894,7.847323485465907e-12,2.5637625356011995e-09,6.295131638189844e-10,5.460033021433869e-31
6.336909885718001e-10,8.628219604492188,4.15353242715355e-05,8.228516890085302e-06,2.563763645824224e-09,6.695309306969932e-10,5.460153392055393e-31,6.482002712360213e-10,5.707635389909153e-31
4.165560257840539e-11,6.79909973277442e-33,0.00016613377374596894,7.847323485465907e-12,6.409406339002999e-10,6.295131638189844e-10,5.429218142323673e-31,4.005776960136487e-11,6.798154194505978e-33
4.143108425780362e-11,6.79910046745839e-33,6.337645408471815e-10,3.2914049370447174e-05,2.5783144508295663e-09,1.007221062110375e-08,0.00017660181038081646,1.0731176189437974e-05,5.614950011335517e-31
4.0971705195236297e-11,6.798725043950096e-33,6.336929314620932e-10,5.022284810252131e-10,5.429218142323673e-31,4.005776960136487e-11,6.797966115409846e-33,4.143108425780362e-11,6.79910046745839e-33
6.337645408471815e-10,3.2914049370447174e-05,2.5783144508295663e-09,1.007221062110375e-08,0.00017660181038081646,1.0731176189437974e-05,5.614950011335517e-31,4.0971705195236297e-11,6.798725043950096e-33
6.336929314620932e-10,7.847320883380693e-12,6.409406339002999e-10,6.295131638189844e-10,5.460033021433869e-31,2.730698270170251e-06,5.615070381957041e-31,4.120351976277803e-11,6.798154194505978e-33
2.534774168339027e-09,7.847320883380693e-12,0.0001661188725847751,1.28570619040147e-07,2.72960255642829e-06,1.658119828107374e-07,5.553560994358174e-31,4.005776960136487e-11,6.798154194505978e-33
6.409406339002999e-10,4.002669376501622e-11,6.797966115409846e-33,4.143108425780362e-11,6.79910046745839e-33,6.337645408471815e-10,3.2914049370447174e-05,2.5783144508295663e-09,1.007221062110375e-08
0.00017660181038081646,1.0731176189437974e-05,5.614950011335517e-31,4.0971705195236297e-11,6.798725043950096e-33,6.336929314620932e-10,7.847320883380693e-12,6.409406339002999e-10,6.295131638189844e-10
5.429218142323673e-31,2.730698270170251e-06,5.615070381957041e-31,4.120351976277803e-11,6.798154194505978e-33,2.534774168339027e-09,7.847320883380693e-12,0.0001661188725847751,1.28570619040147e-07
2.72960255642829e-06,1.658119828107374e-07,5.553560994358174e-31,4.005776960136487e-11,6.797966115409846e-33,6.336929314620932e-10,7.847320016018955e-12,6.409406339002999e-10,1.1506036571518052e-05
2.744503490248462e-06,6.818743827352591e-07,5.460033021433869e-31,4.006753956398157e-11,6.798154929189947e-33,4.0062331924106687e-11,6.799665439430754e-33,1.0384061170043424e-05,8.035661025473928e-09
1.7246276229343493e-07,4.002669376501622e-11,6.797966115409846e-33,2.5637625356011995e-09,6.295131638189844e-10,5.429218142323673e-31,2.730698270170251e-06,5.615070381957041e-31,4.120351976277803e-11
6.798154194505978e-33,2.534774168339027e-09,7.847320883380693e-12,0.0001661188725847751,1.28570619040147e-07,2.72960255642829e-06,1.658119828107374e-07,5.553560994358174e-31,4.005776960136487e-11
6.797966115409846e-33,6.336929314620932e-10,7.847320016018955e-12,2.5637625356011995e-09,1.1506036571518052e-05,2.744503490248462e-06,6.818743827352591e-07,5.460033021433869e-31,4.006753956398157e-11
6.798154929189947e-33,4.0062331924106687e-11,6.799665439430754e-33,1.0384061170043424e-05,8.035661025473928e-09,1.7246276229343493e-07,6.295131638189844e-10,5.429218142323673e-31,6.336909885718001e-10
7.847320016018955e-12,6.409406339002999e-10,1.1506036571518052e-05,2.744503490248462e-06,6.818743827352591e-07,5.460033021433869e-31,4.006753956398157e-11,6.798154929189947e-33,4.0062331924106687e-11
6.799665439430754e-33,1.0384061170043424e-05,8.035661025473928e-09,1.7246276229343493e-07,6.295131638189844e-10,5.460033021433869e-31,4.005776960136487e-11,6.797966115409846e-33,6.336929314620932e-10
8.628219604492188,4.15353242715355e-05,8.228516890085302e-06,2.563763645824224e-09,6.695309306969932e-10,5.460153392055393e-31,6.482002712360213e-10,5.707635389909153e-31,4.165560257840539e-11
6.79909973277442e-33,0.00016613377374596894,7.847323485465907e-12,6.409406339002999e-10,6.295131638189844e-10,5.460033021433869e-31,4.005776960136487e-11,6.798154194505978e-33,4.143108425780362e-11
6.79910046745839e-33,6.337645408471815e-10,3.2914049370447174e-05,2.5783144508295663e-09,1.007221062110375e-08,0.00017660181038081646,1.0731176189437974e-05,5.614950011335517e-31,4.0971705195236297e-11
6.798725043950096e-33,6.336929314620932e-10,7.847320016018955e-12,2.5637625356011995e-09,6.295131638189844e-10,5.429218142323673e-31,2.730698270170251e-06,5.615070381957041e-31,4.120351976277803e-11
6.798154194505978e-33,2.534774168339027e-09,7.847320883380693e-12,0.0001661188725847751,1.28570619040147e-07,2.72960255642829e-06,1.658119828107374e-07,5.553560994358174e-31,4.005776960136487e-11
6.797966115409846e-33,6.409406339002999e-10,6.295131638189844e-10,5.429218142323673e-31,2.730698270170251e-06,5.615070381957041e-31,4.120351976277803e-11,6.798154194505978e-33,2.534774168339027e-09
7.847320883380693e-12,0.0001661188725847751,1.28570619040147e-07,2.72960255642829e-06,1.658119828107374e-07,5.553560994358174e-31,4.005776960136487e-11,6.797966115409846e-33,6.336929314620932e-10
7.847320883380693e-12,2.5637625356011995e-09,1.1506036571518052e-05,2.744503490248462e-06,6.818743827352591e-07,5.460033021433869e-31,4.006753956398157e-11,6.798154929189947e-33,4.0062331924106687e-11
6.799665439430754e-33,1.0384061170043424e-05,8.035661025473928e-09,1.7246276229343493e-07,6.295131638189844e-10,5.429218142323673e-31,4.005776960136487e-11,6.797966115409846e-33,6.336929314620932e-10
8.628219604492188,4.15353242715355e-05,8.228516890085302e-06,2.563763645824224e-09,6.695309306969932e-10,5.460153392055393e-31,6.482002712360213e-10,5.707635389909153e-31,4.165560257840539e-11
6.79909973277442e-33,0.00016613377374596894,7.847323485465907e-12,2.5637625356011995e-09,6.295131638189844e-10,5.429218142323673e-31,4.005776960136487e-11,6.797966115409846e-33,4.143108425780362e-11
6.79910046745839e-33,6.337645408471815e-10,3.2914049370447174e-05,2.5783144508295663e-09,1.007221062110375e-08,0.00017660181038081646,1.0731176189437974e-05,5.614950011335517e-31,4.0971705195236297e-11
6.798725043950096e-33,6.336929314620932e-10,7.847320883380693e-12,2.5637625356011995e-09,6.295131638189844e-10,5.429218142323673e-31,2.730698270170251e-06,5.615070381957041e-31,4.120351976277803e-11
6.798154194505978e-33,2.534774168339027e-09,7.847320883380693e-12,0.0001661188725847751,1.28570619040147e-07,2.72960255642829e-06,1.658119828107374e-07,5.553560994358174e-31,4.005776960136487e-11
6.797966115409846e-33,2.5637625356011995e-09,6.295131638189844e-10,5.460033021433869e-31,2.730698270170251e-06,5.615070381957041e-31,4.120351976277803e-11,6.798154194505978e-33,2.534774168339027e-09
7.847320883380693e-12,0.0001661188725847751,1.28570619040147e-07,2.72960255642829e-06,1.658119828107374e-07,5.553560994358174e-31,6.336909885718001e-10,7.847320016018955e-12,6.409406339002999e-10
6.295131638189844e-10,5.429218142323673e-31,2.730698270170251e-06,5.615070381957041e-31,4.120351976277803e-11,6.798154194505978e-33,2.534774168339027e-09,7.847320883380693e-12,0.0001661188725847751
1.28570619040147e-07,2.72960255642829e-06,1.658119828107374e-07,5.553560994358174e-31,4.005776960136487e-11,6.797966115409846e-33,6.336929314620932e-10,7.847320016018955e-12,6.409406339002999e-10
1.1506036571518052e-05,2.744503490248462e-06,6.818743827352591e-07,5.460033021433869e-31,4.006753956398157e-11,6.798154929189947e-33,4.0062331924106687e-11,6.799665439430754e-33,1.0384061170043424e-05
8.035661025473928e-09,1.7246276229343493e-07,6.295131638189844e-10,5.460033021433869e-31,4.005776960136487e-11,6.798154194505978e-33,6.336929314620932e-10,8.628219604492188,4.15353242715355e-05
8.228516890085302e-06,2.563763645824224e-09,6.695309306969932e-10,5.460153392055393e-31,6.482002712360213e-10,5.707635389909153e-31,4.165560257840539e-11,6.79909973277442e-33,0.00016613377374596894
7.847323485465907e-12,2.5637625356011995e-09,6.295131638189844e-10,5.460033021433869e-31,6.336909885718001e-10,8.628219604492188,4.15353242715355e-05,8.228516890085302e-06,2.563763645824224e-09
6.695309306969932e-10,5.460153392055393e-31,6.482002712360213e-10,5.707635389909153e-31,4.165560257840539e-11,6.79909973277442e-33,0.00016613377374596894,7.847323485465907e-12,6.409406339002999e-10
4.002669376501622e-11,6.797966115409846e-33,6.336929314620932e-10,8.628220558166504,4.15353242715355e-05,8.228516890085302e-06,2.563763645824224e-09,6.695309306969932e-10,5.460153392055393e-31
6.482002712360213e-10,5.707635389909153e-31,4.165560257840539e-11,6.79909973277442e-33,0.00016613377374596894,5.02228703069818e-10,5.429218142323673e-31,4.005776960136487e-11,6.797966115409846e-33
6.409406339002999e-10,1.1506036571518052e-05,2.744503490248462e-06,6.818743827352591e-07,5.460033021433869e-31,4.006753956398157e-11,6.798154929189947e-33,4.0062331924106687e-11,6.799665439430754e-33
1.0384061170043424e-05,8.035661025473928e-09,1.7246276229343493e-07,4.002669376501622e-11,6.797966115409846e-33,6.336929314620932e-10,7.847320016018955e-12,6.409406339002999e-10,1.1506036571518052e-05
2.744503490248462e-06,6.818743827352591e-07,5.460033021433869e-31,4.006753956398157e-11,6.798154929189947e-33,4.0062331924106687e-11,6.799665439430754e-33,1.0384061170043424e-05,8.035661025473928e-09
1.7246276229343493e-07,6.295131638189844e-10,5.429218142323673e-31,6.336909885718001e-10,7.847320016018955e-12,2.5637625356011995e-09,1.1506036571518052e-05,2.744503490248462e-06,6.818743827352591e-07
5.460033021433869e-31,4.006753956398157e-11,6.798154929189947e-33,4.0062331924106687e-11,6.799665439430754e-33,1.0384061170043424e-05,8.035661025473928e-09,1.7246276229343493e-07,6.295131638189844e-10
5.460033021433869e-31,4.005776960136487e-11,6.797966115409846e-33,6.336929314620932e-10,8.628220558166504,4.15353242715355e-05,8.228516890085302e-06,2.563763645824224e-09,6.695309306969932e-10
5.460153392055393e-31,6.482002712360213e-10,5.707635389909153e-31,4.165560257840539e-11,6.79909973277442e-33,0.00016613377374596894,7.847323485465907e-12,6.409406339002999e-10,4.002669376501622e-11
6.797966115409846e-33,6.336929314620932e-10,8.628220558166504,4.15353242715355e-05,8.228516890085302e-06,2.563763645824224e-09,6.695309306969932e-10,5.460153392055393e-31,6.482002712360213e-10
5.707635389909153e-31,4.165560257840539e-11,6.79909973277442e-33,0.00016613377374596894,5.02228703069818e-10,5.429218142323673e-31,6.336909885718001e-10,7.847320883380693e-12,2.5637625356011995e-09
1.1506036571518052e-05,2.744503490248462e-06,6.818743827352591e-07,5.460033021433869e-31,4.006753956398157e-11,6.798154929189947e-33,4.0062331924106687e-11,6.799665439430754e-33,1.0384061170043424e-05
8.035661025473928e-09,1.7246276229343493e-07,6.295131638189844e-10,5.460033021433869e-31,4.005776960136487e-11,6.797966115409846e-33,6.409406339002999e-10,1.1506036571518052e-05,2.744503490248462e-06
6.818743827352591e-07,5.460033021433869e-31,4.006753956398157e-11,6.798154929189947e-33,4.0062331924106687e-11,6.799665439430754e-33,1.0384061170043424e-05,8.035661025473928e-09,1.7246276229343493e-07
4.002669376501622e-11,6.797966115409846e-33,6.336929314620932e-10,5.022284810252131e-10,5.429218142323673e-31,2.730698270170251e-06,5.615070381957041e-31,4.120351976277803e-11,6.798154194505978e-33
2.534774168339027e-09,7.847320883380693e-12,0.0001661188725847751,1.28570619040147e-07,2.72960255642829e-06,1.658119828107374e-07,5.553560994358174e-31,6.336909885718001e-10,5.022284810252131e-10
5.429218142323673e-31,4.005776960136487e-11,6.797966115409846e-33,4.143108425780362e-11,6.79910046745839e-33,6.337645408471815e-10,3.2914049370447174e-05,2.5783144508295663e-09,1.007221062110375e-08
0.00017660181038081646,1.0731176189437974e-05,5.614950011335517e-31,4.0971705195236297e-11,6.798725043950096e-33,6.336929314620932e-10,5.022285365363643e-10,5.429218142323673e-31,4.005776960136487e-11
6.798154194505978e-33,4.143108425780362e-11,6.79910046745839e-33,6.337645408471815e-10,3.2914049370447174e-05,2.5783144508295663e-09,1.007221062110375e-08,0.00017660181038081646,1.0731176189437974e-05
5.614950011335517e-31,4.0971705195236297e-11,6.798725043950096e-33,6.409406339002999e-10,4.002669376501622e-11,6.797966115409846e-33,6.336929314620932e-10,8.628220558166504,4.15353242715355e-05
8.228516890085302e-06,2.563763645824224e-09,6.695309306969932e-10,5.460153392055393e-31,6.482002712360213e-10,5.707635389909153e-31,4.165560257840539e-11,6.79909973277442e-33,0.00016613377374596894
7.847323485465907e-12,2.5637625356011995e-09,4.002669376501622e-11,6.797966115409846e-33,6.336929314620932e-10,8.628219604492188,4.15353242715355e-05,8.228516890085302e-06,2.563763645824224e-09
6.695309306969932e-10,5.460153392055393e-31,6.482002712360213e-10,5.707635389909153e-31,4.165560257840539e-11,6.79909973277442e-33,0.00016613377374596894,7.847323485465907e-12,6.409406339002999e-10
4.002669376501622e-11,6.797966115409846e-33,6.336929314620932e-10,8.628219604492188,4.15353242715355e-05,8.228516890085302e-06,2.563763645824224e-09,6.695309306969932e-10,5.460153392055393e-31
6.482002712360213e-10,5.707635389909153e-31,4.165560257840539e-11,6.79909973277442e-33,0.00016613377374596894,7.847323485465907e-12,6.409406339002999e-10,6.295131638189844e-10,5.429218142323673e-31
6.336909885718001e-10,8.628219604492188,4.15353242715355e-05,8.228516890085302e-06,2.563763645824224e-09,6.695309306969932e-10,5.460153392055393e-31,6.482002712360213e-10,5.707635389909153e-31
4.165560257840539e-11,6.79909973277442e-33,0.00016613377374596894,7.847323485465907e-12,2.5637625356011995e-09,4.002669376501622e-11,6.797966115409846e-33,6.336929314620932e-10,8.628219604492188
4.15353242715355e-05,8.228516890085302e-06,2.563763645824224e-09,6.695309306969932e-10,5.460153392055393e-31,6.482002712360213e-10,5.707635389909153e-31,4.165560257840539e-11,6.79909973277442e-33
0.00016613377374596894,7.847323485465907e-12,2.5637625356011995e-09,4.002669376501622e-11,6.797966115409846e-33,6.336929314620932e-10,8.628219604492188,4.15353242715355e-05,8.228516890085302e-06
2.563763645824224e-09,6.695309306969932e-10,5.460153392055393e-31,6.482002712360213e-10,5.707635389909153e-31,4.165560257840539e-11,6.79909973277442e-33,0.00016613377374596894,7.847323485465907e-12
2.5637625356011995e-09,4.002669376501622e-11,6.797966115409846e-33,6.336929314620932e-10,8.628220558166504,4.15353242715355e-05,8.228516890085302e-06,2.563763645824224e-09,6.695309306969932e-10
5.460153392055393e-31,6.482002712360213e-10,5.707635389909153e-31,4.165560257840539e-11,6.79909973277442e-33,0.00016613377374596894,7.847323485465907e-12,2.5637625356011995e-09,6.295131638189844e-10
5.429218142323673e-31,4.005776960136487e-11,6.798154194505978e-33,4.143108425780362e-11,6.79910046745839e-33,6.337645408471815e-10,3.2914049370447174e-05,2.5783144508295663e-09,1.007221062110375e-08
0.00017660181038081646,1.0731176189437974e-05,5.614950011335517e-31,4.0971705195236297e-11,6.798725043950096e-33,6.336929314620932e-10,5.022285365363643e-10,5.460033021433869e-31,4.005776960136487e-11
6.797966115409846e-33,4.143108425780362e-11,6.79910046745839e-33,6.337645408471815e-10,3.2914049370447174e-05,2.5783144508295663e-09,1.007221062110375e-08,0.00017660181038081646,1.0731176189437974e-05
5.614950011335517e-31,4.0971705195236297e-11,6.798725043950096e-33,6.336929314620932e-10,7.847320016018955e-12,6.409406339002999e-10,4.002669376501622e-11,6.797966115409846e-33,4.143108425780362e-11
6.79910046745839e-33,6.337645408471815e-10,3.2914049370447174e-05,2.5783144508295663e-09,1.007221062110375e-08,0.00017660181038081646,1.0731176189437974e-05,5.614950011335517e-31,4.0971705195236297e-11
6.798725043950096e-33,6.336929314620932e-10,5.022284810252131e-10,5.429218142323673e-31,4.005776960136487e-11,6.797966115409846e-33,4.143108425780362e-11,6.79910046745839e-33,6.337645408471815e-10
3.2914049370447174e-05,2.5783144508295663e-09,1.007221062110375e-08,0.00017660181038081646,1.0731176189437974e-05,5.614950011335517e-31,4.0971705195236297e-11,6.798725043950096e-33,6.336929314620932e-10
5.022285365363643e-10,5.429218142323673e-31,4.005776960136487e-11,6.798154194505978e-33,4.143108425780362e-11,6.79910046745839e-33,6.337645408471815e-10,3.2914049370447174e-05,2.5783144508295663e-09
1.007221062110375e-08,0.00017660181038081646,1.0731176189437974e-05,5.614950011335517e-31,4.0971705195236297e-11,6.798725043950096e-33,6.409406339002999e-10,6.295131638189844e-10,5.429218142323673e-31
4.005776960136487e-11,6.797966115409846e-33,4.143108425780362e-11,6.79910046745839e-33,6.337645408471815e-10,3.2914049370447174e-05,2.5783144508295663e-09,1.007221062110375e-08,0.00017660181038081646
1.0731176189437974e-05,5.614950011335517e-31,4.0971705195236297e-11,6.798725043950096e-33,6.336929314620932e-10,7.847320016018955e-12,2.5637625356011995e-09,6.295131638189844e-10,5.429218142323673e-31
2.730698270170251e-06,5.615070381957041e-31,4.120351976277803e-11,6.798154194505978e-33,2.534774168339027e-09,7.847320883380693e-12,0.0001661188725847751,1.28570619040147e-07,2.72960255642829e-06
1.658119828107374e-07,5.553560994358174e-31,4.005776960136487e-11,6.79834227360211e-33,6.336929314620932e-10,7.847320016018955e-12,2.5637625356011995e-09,1.1506036571518052e-05,2.744503490248462e-06
6.818743827352591e-07,5.460033021433869e-31,4.006753956398157e-11,6.798154929189947e-33,4.0062331924106687e-11,6.799665439430754e-33,1.0384061170043424e-05,8.035661025473928e-09,1.7246276229343493e-07
6.295131638189844e-10,5.460033021433869e-31,4.005776960136487e-11,6.798154194505978e-33,6.336929314620932e-10,8.628220558166504,4.15353242715355e-05,8.228516890085302e-06,2.563763645824224e-09
6.695309306969932e-10,5.460153392055393e-31,6.482002712360213e-10,5.707635389909153e-31,4.165560257840539e-11,6.79909973277442e-33,0.00016613377374596894,5.02228703069818e-10,5.429218142323673e-31
4.005776960136487e-11,6.797966115409846e-33,6.336929314620932e-10,8.628219604492188,4.15353242715355e-05,8.228516890085302e-06,2.563763645824224e-09,6.695309306969932e-10,5.460153392055393e-31
6.482002712360213e-10,5.707635389909153e-31,4.165560257840539e-11,6.79909973277442e-33,0.00016613377374596894,7.847323485465907e-12,2.5637625356011995e-09,4.002669376501622e-11,6.797966115409846e-33
6.336929314620932e-10,8.628219604492188,4.15353242715355e-05,8.228516890085302e-06,2.563763645824224e-09,6.695309306969932e-10,5.460153392055393e-31,6.482002712360213e-10,5.707635389909153e-31
4.165560257840539e-11,6.79909973277442e-33,0.00016613377374596894,7.847323485465907e-12,6.409406339002999e-10,6.295131638189844e-10,5.429218142323673e-31,6.336909885718001e-10,8.628219604492188
4.15353242715355e-05,8.228516890085302e-06,2.563763645824224e-09,6.695309306969932e-10,5.460153392055393e-31,6.482002712360213e-10,5.707635389909153e-31,4.165560257840539e-11,6.79909973277442e-33
0.00016613377374596894,7.847323485465907e-12,6.409406339002999e-10,6.295131638189844e-10,5.429218142323673e-31,4.005776960136487e-11,6.797966115409846e-33,4.143108425780362e-11,6.79910046745839e-33
6.337645408471815e-10,3.2914049370447174e-05,2.5783144508295663e-09,1.007221062110375e-08,0.00017660181038081646,1.0731176189437974e-05,5.614950011335517e-31,4.0971705195236297e-11,6.798725043950096e-33
6.336929314620932e-10,7.847320883380693e-12,2.5637625356011995e-09,6.295131638189844e-10,5.429218142323673e-31,2.730698270170251e-06,5.615070381957041e-31,4.120351976277803e-11,6.798154194505978e-33
2.534774168339027e-09,7.847320883380693e-12,0.0001661188725847751,1.28570619040147e-07,2.72960255642829e-06,1.658119828107374e-07,5.553560994358174e-31,6.336909885718001e-10,7.847320016018955e-12
6.409406339002999e-10,6.295131638189844e-10,5.429218142323673e-31,2.730698270170251e-06,5.615070381957041e-31,4.120351976277803e-11,6.798154194505978e-33,2.534774168339027e-09,7.847320883380693e-12
0.0001661188725847751,1.28570619040147e-07,2.72960255642829e-06,1.658119828107374e-07,5.553560994358174e-31,4.005776960136487e-11,6.797966115409846e-33,6.336929314620932e-10,7.847320016018955e-12
2.5637625356011995e-09,1.1506036571518052e-05,2.744503490248462e-06,6.818743827352591e-07,5.460033021433869e-31,4.006753956398157e-11,6.798154929189947e-33,4.0062331924106687e-11,6.799665439430754e-33
1.0384061170043424e-05,8.035661025473928e-09,1.7246276229343493e-07,6.295131638189844e-10,5.460033021433869e-31,6.336909885718001e-10,5.022284810252131e-10,5.429218142323673e-31,2.730698270170251e-06
5.615070381957041e-31,4.120351976277803e-11,6.798154194505978e-33,2.534774168339027e-09,7.847320883380693e-12,0.0001661188725847751,1.28570619040147e-07,2.72960255642829e-06,1.658119828107374e-07
5.553560994358174e-31,4.005776960136487e-11,6.798154194505978e-33,6.336929314620932e-10,7.847320016018955e-12,2.5637625356011995e-09,1.1506036571518052e-05,2.744503490248462e-06,6.818743827352591e-07
5.460033021433869e-31,4.006753956398157e-11,6.798154929189947e-33,4.0062331924106687e-11,6.799665439430754e-33,1.0384061170043424e-05,8.035661025473928e-09,1.7246276229343493e-07,4.002669376501622e-11
6.797966115409846e-33,6.336929314620932e-10,5.022284810252131e-10,5.429218142323673e-31,2.730698270170251e-06,5.615070381957041e-31,4.120351976277803e-11,6.798154194505978e-33,2.534774168339027e-09
7.847320883380693e-12,0.0001661188725847751,1.28570619040147e-07,2.72960255642829e-06,1.658119828107374e-07,5.553560994358174e-31,4.005776960136487e-11,6.798154194505978e-33,6.336929314620932e-10
7.847320883380693e-12,6.409406339002999e-10,1.1506036571518052e-05,2.744503490248462e-06,6.818743827352591e-07,5.460033021433869e-31,4.006753956398157e-11,6.798154929189947e-33,4.0062331924106687e-11
6.799665439430754e-33,1.0384061170043424e-05,8.035661025473928e-09,1.7246276229343493e-07,6.295131638189844e-10,5.429218142323673e-31,4.005776960136487e-11,6.797966115409846e-33,6.336929314620932e-10
8.628220558166504,4.15353242715355e-05,8.228516890085302e-06,2.563763645824224e-09,6.695309306969932e-10,5.460153392055393e-31,6.482002712360213e-10,5.707635389909153e-31,4.165560257840539e-11
6.79909973277442e-33,0.00016613377374596894,5.02228703069818e-10,5.429218142323673e-31,4.005776960136487e-11,6.797966115409846e-33,6.336929314620932e-10,8.628220558166504,4.15353242715355e-05
8.228516890085302e-06,2.563763645824224e-09,6.695309306969932e-10,5.460153392055393e-31,6.482002712360213e-10,5.707635389909153e-31,4.165560257840539e-11,6.79909973277442e-33,0.00016613377374596894
7.847323485465907e-12,6.409406339002999e-10,4.002669376501622e-11,6.797966115409846e-33,6.336929314620932e-10,8.628219604492188,4.15353242715355e-05,8.228516890085302e-06,2.563763645824224e-09
6.695309306969932e-10,5.460153392055393e-31,6.482002712360213e-10,5.707635389909153e-31,4.165560257840539e-11,6.79909973277442e-33,0.00016613377374596894,7.847323485465907e-12,2.5637625356011995e-09
6.295131638189844e-10,5.429218142323673e-31,4.005776960136487e-11,6.797966115409846e-33,4.143108425780362e-11,6.79910046745839e-33,6.337645408471815e-10,3.2914049370447174e-05,2.5783144508295663e-09
1.007221062110375e-08,0.00017660181038081646,1.0731176189437974e-05,5.614950011335517e-31,4.0971705195236297e-11,6.798725043950096e-33,6.336929314620932e-10,7.847320016018955e-12,6.409406339002999e-10
6.295131638189844e-10,5.460033021433869e-31,2.730698270170251e-06,5.615070381957041e-31,4.120351976277803e-11,6.798154194505978e-33,2.534774168339027e-09,7.847320883380693e-12,0.0001661188725847751
1.28570619040147e-07,2.72960255642829e-06,1.658119828107374e-07,5.553560994358174e-31,4.005776960136487e-11,6.797966115409846e-33,6.409406339002999e-10,6.295131638189844e-10,5.429218142323673e-31
2.730698270170251e-06,5.615070381957041e-31,4.120351976277803e-11,6.798154194505978e-33,2.534774168339027e-09,7.847320883380693e-12,0.0001661188725847751,1.28570619040147e-07,2.72960255642829e-06
1.658119828107374e-07,5.553560994358174e-31,6.336909885718001e-10,7.847320016018955e-12,6.409406339002999e-10,6.295131638189844e-10,5.429218142323673e-31,2.730698270170251e-06,5.615070381957041e-31
4.120351976277803e-11,6.798154194505978e-33,2.534774168339027e-09,7.847320883380693e-12,0.0001661188725847751,1.28570619040147e-07,2.72960255642829e-06,1.658119828107374e-07,5.553560994358174e-31
4.005776960136487e-11,6.797966115409846e-33,6.409406339002999e-10,4.002669376501622e-11,6.797966115409846e-33,4.143108425780362e-11,6.79910046745839e-33,6.337645408471815e-10,3.2914049370447174e-05
2.5783144508295663e-09,1.007221062110375e-08,0.00017660181038081646,1.0731176189437974e-05,5.614950011335517e-31,4.0971705195236297e-11,6.798725043950096e-33,6.336929314620932e-10,7.847320016018955e-12
6.409406339002999e-10,6.295131638189844e-10,5.460033021433869e-31,2.730698270170251e-06,5.615070381957041e-31,4.120351976277803e-11,6.798154194505978e-33,2.534774168339027e-09,7.847320883380693e-12
0.0001661188725847751,1.28570619040147e-07,2.72960255642829e-06,1.658119828107374e-07,5.553560994358174e-31,4.005776960136487e-11,6.797966115409846e-33,6.336929314620932e-10,7.847320016018955e-12
2.5637625356011995e-09,1.1506036571518052e-05,2.744503490248462e-06,6.818743827352591e-07,5.460033021433869e-31,4.006753956398157e-11,6.798154929189947e-33,4.0062331924106687e-11,6.799665439430754e-33
1.0384061170043424e-05,8.035661025473928e-09,1.7246276229343493e-07,6.295131638189844e-10,5.460033021433869e-31,4.005776960136487e-11,6.798154194505978e-33,6.336929314620932e-10,8.628219604492188
4.15353242715355e-05,8.228516890085302e-06,2.563763645824224e-09,6.695309306969932e-10,5.460153392055393e-31,6.482002712360213e-10,5.707635389909153e-31,4.165560257840539e-11,6.79909973277442e-33
0.00016613377374596894,7.847323485465907e-12,6.409406339002999e-10,6.295131638189844e-10,5.429218142323673e-31,6.336909885718001e-10,8.628219604492188,4.15353242715355e-05,8.228516890085302e-06
2.563763645824224e-09,6.695309306969932e-10,5.460153392055393e-31,6.482002712360213e-10,5.707635389909153e-31,4.165560257840539e-11,6.79909973277442e-33,0.00016613377374596894,7.847323485465907e-12
2.5637625356011995e-09,6.295131638189844e-10,5.429218142323673e-31,4.005776960136487e-11,6.797966115409846e-33,4.143108425780362e-11,6.79910046745839e-33,6.337645408471815e-10,3.2914049370447174e-05
2.5783144508295663e-09,1.007221062110375e-08,0.00017660181038081646,1.0731176189437974e-05,5.614950011335517e-31,4.0971705195236297e-11,6.798725043950096e-33,6.336929314620932e-10,5.022284810252131e-10
5.429218142323673e-31,6.336909885718001e-10,8.628219604492188,4.15353242715355e-05,8.228516890085302e-06,2.563763645824224e-09,6.695309306969932e-10,5.460153392055393e-31,6.482002712360213e-10
5.707635389909153e-31,4.165560257840539e-11,6.79909973277442e-33,0.00016613377374596894,7.847323485465907e-12,6.409406339002999e-10,6.295131638189844e-10,5.429218142323673e-31,4.005776960136487e-11
6.797966115409846e-33,4.143108425780362e-11,6.79910046745839e-33,6.337645408471815e-10,3.2914049370447174e-05,2.5783144508295663e-09,1.007221062110375e-08,0.00017660181038081646,1.0731176189437974e-05
5.614950011335517e-31,4.0971705195236297e-11,6.798725043950096e-33,6.409406339002999e-10,6.295131638189844e-10,5.429218142323673e-31,4.005776960136487e-11,6.797966115409846e-33,4.143108425780362e-11
6.79910046745839e-33,6.337645408471815e-10,3.2914049370447174e-05,2.5783144508295663e-09,1.007221062110375e-08,0.00017660181038081646,1.0731176189437974e-05,5.614950011335517e-31,4.0971705195236297e-11
6.798725043950096e-33,6.336929314620932e-10,7.847320016018955e-12,6.409406339002999e-10,6.295131638189844e-10,5.429218142323673e-31,2.730698270170251e-06,5.615070381957041e-31,4.120351976277803e-11
6.798154194505978e-33,2.534774168339027e-09,7.847320883380693e-12,0.0001661188725847751,1.28570619040147e-07,2.72960255642829e-06,1.658119828107374e-07,5.553560994358174e-31,4.005776960136487e-11
6.798154194505978e-33,2.5637625356011995e-09,6.295131638189844e-10,5.429218142323673e-31,2.730698270170251e-06,5.615070381957041e-31,4.120351976277803e-11,6.798154194505978e-33,2.534774168339027e-09
7.847320883380693e-12,0.0001661188725847751,1.28570619040147e-07,2.72960255642829e-06,1.658119828107374e-07,5.553560994358174e-31,4.005776960136487e-11,6.797966115409846e-33,2.5637625356011995e-09
6.295131638189844e-10,5.460033021433869e-31,2.730698270170251e-06,5.615070381957041e-31,4.120351976277803e-11,6.798154194505978e-33,2.534774168339027e-09,7.847320883380693e-12,0.0001661188725847751
1.28570619040147e-07,2.72960255642829e-06,1.658119828107374e-07,5.553560994358174e-31,4.005776960136487e-11,6.797966115409846e-33,6.409406339002999e-10,6.295131638189844e-10,5.460033021433869e-31
2.730698270170251e-06,5.615070381957041e-31,4.120351976277803e-11,6.798154194505978e-33,2.534774168339027e-09,7.847320883380693e-12,0.0001661188725847751,1.28570619040147e-07,2.72960255642829e-06
1.658119828107374e-07,5.553560994358174e-31,4.005776960136487e-11,6.797966115409846e-33,6.336929314620932e-10,7.847320016018955e-12,6.409406339002999e-10,1.1506036571518052e-05,2.744503490248462e-06
6.818743827352591e-07,5.460033021433869e-31,4.006753956398157e-11,6.798154929189947e-33,4.0062331924106687e-11,6.799665439430754e-33,1.0384061170043424e-05,8.035661025473928e-09,1.7246276229343493e-07
6.295131638189844e-10,5.429218142323673e-31,4.005776960136487e-11,6.798154194505978e-33,6.409406339002999e-10,1.1506036571518052e-05,2.744503490248462e-06,6.818743827352591e-07,5.460033021433869e-31
4.006753956398157e-11,6.798154929189947e-33,4.0062331924106687e-11,6.799665439430754e-33,1.0384061170043424e-05,8.035661025473928e-09,1.7246276229343493e-07,6.295131638189844e-10,5.429218142323673e-31
4.005776960136487e-11,6.798154194505978e-33,6.409406339002999e-10,1.1506036571518052e-05,2.744503490248462e-06,6.818743827352591e-07,5.460033021433869e-31,4.006753956398157e-11,6.798154929189947e-33
4.0062331924106687e-11,6.799665439430754e-33,1.0384061170043424e-05,8.035661025473928e-09,1.7246276229343493e-07,6.295131638189844e-10,5.429218142323673e-31,4.005776960136487e-11,6.797966115409846e-33
6.409406339002999e-10,1.1506036571518052e-05,2.744503490248462e-06,6.818743827352591e-07,5.460033021433869e-31,4.006753956398157e-11,6.798154929189947e-33,4.0062331924106687e-11,6.799665439430754e-33
1.0384061170043424e-05,8.035661025473928e-09,1.7246276229343493e-07,6.295131638189844e-10,5.429218142323673e-31,6.336909885718001e-10,7.847320883380693e-12,6.409406339002999e-10,1.1506036571518052e-05
2.744503490248462e-06,6.818743827352591e-07,5.460033021433869e-31,4.006753956398157e-11,6.798154929189947e-33,4.0062331924106687e-11,6.799665439430754e-33,1.0384061170043424e-05,8.035661025473928e-09
1.7246276229343493e-07,6.295131638189844e-10,5.460033021433869e-31,4.005776960136487e-11,6.797966115409846e-33,6.336929314620932e-10,8.628219604492188,4.15353242715355e-05,8.228516890085302e-06
2.563763645824224e-09,6.695309306969932e-10,5.460153392055393e-31,6.482002712360213e-10,5.707635389909153e-31,4.165560257840539e-11,6.79909973277442e-33,0.00016613377374596894,5.02228703069818e-10
5.429218142323673e-31,6.336909885718001e-10,7.847320016018955e-12,2.5637625356011995e-09,1.1506036571518052e-05,2.744503490248462e-06,6.818743827352591e-07,5.460033021433869e-31,4.006753956398157e-11
6.798154929189947e-33,4.0062331924106687e-11,6.799665439430754e-33,1.0384061170043424e-05,8.035661025473928e-09,1.7246276229343493e-07,6.295131638189844e-10,5.460033021433869e-31,4.005776960136487e-11
6.797966115409846e-33,6.336929314620932e-10,8.628219604492188,4.15353242715355e-05,8.228516890085302e-06,2.563763645824224e-09,6.695309306969932e-10,5.460153392055393e-31,6.482002712360213e-10
5.707635389909153e-31,4.165560257840539e-11,6.79909973277442e-33,0.00016613377374596894,7.847323485465907e-12,6.409406339002999e-10,6.295131638189844e-10,5.429218142323673e-31,4.005776960136487e-11
6.797966115409846e-33,4.143108425780362e-11,6.79910046745839e-33,6.337645408471815e-10,3.2914049370447174e-05,2.5783144508295663e-09,1.007221062110375e-08,0.00017660181038081646,1.0731176189437974e-05
5.614950011335517e-31,4.0971705195236297e-11,6.798725043950096e-33,6.336929314620932e-10,7.847320016018955e-12,6.409406339002999e-10,4.002669376501622e-11,6.797966115409846e-33,4.143108425780362e-11
6.79910046745839e-33,6.337645408471815e-10,3.2914049370447174e-05,2.5783144508295663e-09,1.007221062110375e-08,0.00017660181038081646,1.0731176189437974e-05,5.614950011335517e-31,4.0971705195236297e-11
6.798725043950096e-33,6.336929314620932e-10,7.847320016018955e-12,6.409406339002999e-10,4.002669376501622e-11,6.797966115409846e-33,4.143108425780362e-11,6.79910046745839e-33,6.337645408471815e-10
3.2914049370447174e-05,2.5783144508295663e-09,1.007221062110375e-08,0.00017660181038081646,1.0731176189437974e-05,5.614950011335517e-31,4.0971705195236297e-11,6.798725043950096e-33,6.336929314620932e-10
7.847320016018955e-12,6.409406339002999e-10,4.002669376501622e-11,6.797966115409846e-33,4.143108425780362e-11,6.79910046745839e-33,6.337645408471815e-10,3.2914049370447174e-05,2.5783144508295663e-09
1.007221062110375e-08,0.00017660181038081646,1.0731176189437974e-05,5.614950011335517e-31,4.0971705195236297e-11,6.798725043950096e-33,6.336929314620932e-10,5.022285365363643e-10,5.429218142323673e-31
6.336909885718001e-10,8.628219604492188,4.15353242715355e-05,8.228516890085302e-06,2.563763645824224e-09,6.695309306969932e-10,5.460153392055393e-31,6.482002712360213e-10,5.707635389909153e-31
4.165560257840539e-11,6.79909973277442e-33,0.00016613377374596894,7.847323485465907e-12,6.409406339002999e-10,4.002669376501622e-11,6.797966115409846e-33,6.336929314620932e-10,8.628219604492188
4.15353242715355e-05,8.228516890085302e-06,2.563763645824224e-09,6.695309306969932e-10,5.460153392055393e-31,6.482002712360213e-10,5.707635389909153e-31,4.165560257840539e-11,6.79909973277442e-33
0.00016613377374596894,7.847323485465907e-12,6.409406339002999e-10,6.295131638189844e-10,5.460033021433869e-31,6.336909885718001e-10,8.628219604492188,4.15353242715355e-05,8.228516890085302e-06
2.563763645824224e-09,6.695309306969932e-10,5.460153392055393e-31,6.482002712360213e-10,5.707635389909153e-31,4.165560257840539e-11,6.79909973277442e-33,0.00016613377374596894,7.847323485465907e-12
6.409406339002999e-10,6.295131638189844e-10,5.429218142323673e-31,4.005776960136487e-11,6.798154194505978e-33,4.143108425780362e-11,6.79910046745839e-33,6.337645408471815e-10,3.2914049370447174e-05
2.5783144508295663e-09,1.007221062110375e-08,0.00017660181038081646,1.0731176189437974e-05,5.614950011335517e-31,4.0971705195236297e-11,6.798725043950096e-33,2.5637625356011995e-09,6.295131638189844e-10
5.460033021433869e-31,4.005776960136487e-11,6.797966115409846e-33,4.143108425780362e-11,6.79910046745839e-33,6.337645408471815e-10,3.2914049370447174e-05,2.5783144508295663e-09,1.007221062110375e-08
0.00017660181038081646,1.0731176189437974e-05,5.614950011335517e-31,4.0971705195236297e-11,6.798725043950096e-33,6.336929314620932e-10,7.847320883380693e-12,6.409406339002999e-10,6.295131638189844e-10
5.429218142323673e-31,2.730698270170251e-06,5.615070381957041e-31,4.120351976277803e-11,6.798154194505978e-33,2.534774168339027e-09,7.847320883380693e-12,0.0001661188725847751,1.28570619040147e-07
2.72960255642829e-06,1.658119828107374e-07,5.553560994358174e-31,4.005776960136487e-11,6.798154194505978e-33,6.409406339002999e-10,6.295131638189844e-10,5.460033021433869e-31,2.730698270170251e-06
5.615070381957041e-31,4.120351976277803e-11,6.798154194505978e-33,2.534774168339027e-09,7.847320883380693e-12,0.0001661188725847751,1.28570619040147e-07,2.72960255642829e-06,1.658119828107374e-07
5.553560994358174e-31,6.336909885718001e-10,7.847320883380693e-12,6.409406339002999e-10,6.295131638189844e-10,5.429218142323673e-31,2.730698270170251e-06,5.615070381957041e-31,4.120351976277803e-11
6.798154194505978e-33,2.534774168339027e-09,7.847320883380693e-12,0.0001661188725847751,1.28570619040147e-07,2.72960255642829e-06,1.658119828107374e-07,5.553560994358174e-31,6.336909885718001e-10
7.847320016018955e-12,6.409406339002999e-10,6.295131638189844e-10,5.429218142323673e-31,2.730698270170251e-06,5.615070381957041e-31,4.120351976277803e-11,6.798154194505978e-33,2.534774168339027e-09
7.847320883380693e-12,0.0001661188725847751,1.28570619040147e-07,2.72960255642829e-06,1.658119828107374e-07,5.553560994358174e-31,6.336909885718001e-10,5.022284810252131e-10,5.429218142323673e-31
4.005776960136487e-11,6.797966115409846e-33,4.143108425780362e-11,6.79910046745839e-33,6.337645408471815e-10,3.2914049370447174e-05,2.5783144508295663e-09,1.007221062110375e-08,0.00017660181038081646
1.0731176189437974e-05,5.614950011335517e-31,4.0971705195236297e-11,6.798725043950096e-33,6.336929314620932e-10,7.847320016018955e-12,6.409406339002999e-10,6.295131638189844e-10,5.460033021433869e-31
2.730698270170251e-06,5.615070381957041e-31,4.120351976277803e-11,6.798154194505978e-33,2.534774168339027e-09,7.847320883380693e-12,0.0001661188725847751,1.28570619040147e-07,2.72960255642829e-06
1.658119828107374e-07,5.553560994358174e-31,4.005776960136487e-11,6.797966115409846e-33,6.409406339002999e-10,6.295131638189844e-10,5.460033021433869e-31,2.730698270170251e-06,5.615070381957041e-31
4.120351976277803e-11,6.798154194505978e-33,2.534774168339027e-09,7.847320883380693e-12,0.0001661188725847751,1.28570619040147e-07,2.72960255642829e-06,1.658119828107374e-07,5.553560994358174e-31
6.336909885718001e-10,5.022284810252131e-10,5.429218142323673e-31,6.336909885718001e-10,8.628219604492188,4.15353242715355e-05,8.228516890085302e-06,2.563763645824224e-09,6.695309306969932e-10
5.460153392055393e-31,6.482002712360213e-10,5.707635389909153e-31,4.165560257840539e-11,6.79909973277442e-33,0.00016613377374596894,7.847323485465907e-12,2.5637625356011995e-09,4.002669376501622e-11
6.797966115409846e-33,6.409406339002999e-10,1.1506036571518052e-05,2.744503490248462e-06,6.818743827352591e-07,5.460033021433869e-31,4.006753956398157e-11,6.798154929189947e-33,4.0062331924106687e-11
6.799665439430754e-33,1.0384061170043424e-05,8.035661025473928e-09,1.7246276229343493e-07,6.295131638189844e-10,5.429218142323673e-31,6.336909885718001e-10,7.847320016018955e-12,2.5637625356011995e-09
1.1506036571518052e-05,2.744503490248462e-06,6.818743827352591e-07,5.460033021433869e-31,4.006753956398157e-11,6.798154929189947e-33,4.0062331924106687e-11,6.799665439430754e-33,1.0384061170043424e-05
8.035661025473928e-09,1.7246276229343493e-07,6.295131638189844e-10,5.460033021433869e-31,4.005776960136487e-11,6.797966115409846e-33,6.336929314620932e-10,8.628220558166504,4.15353242715355e-05
8.228516890085302e-06,2.563763645824224e-09,6.695309306969932e-10,5.460153392055393e-31,6.482002712360213e-10,5.707635389909153e-31,4.165560257840539e-11,6.79909973277442e-33,0.00016613377374596894
7.847323485465907e-12,6.409406339002999e-10,6.295131638189844e-10,5.429218142323673e-31,6.336909885718001e-10,8.628219604492188,4.15353242715355e-05,8.228516890085302e-06,2.563763645824224e-09
6.695309306969932e-10,5.460153392055393e-31,6.482002712360213e-10,5.707635389909153e-31,4.165560257840539e-11,6.79909973277442e-33,0.00016613377374596894,5.02228703069818e-10,5.429218142323673e-31
4.005776960136487e-11,6.797966115409846e-33,6.336929314620932e-10,8.628219604492188,4.15353242715355e-05,8.228516890085302e-06,2.563763645824224e-09,6.695309306969932e-10,5.460153392055393e-31
6.482002712360213e-10,5.707635389909153e-31,4.165560257840539e-11,6.79909973277442e-33,0.00016613377374596894,7.847323485465907e-12,6.409406339002999e-10,6.295131638189844e-10,5.429218142323673e-31
6.336909885718001e-10,8.628219604492188,4.15353242715355e-05,8.228516890085302e-06,2.563763645824224e-09,6.695309306969932e-10,5.460153392055393e-31,6.482002712360213e-10,5.707635389909153e-31
4.165560257840539e-11,6.79909973277442e-33,0.00016613377374596894,7.847323485465907e-12,2.5637625356011995e-09,6.295131638189844e-10,5.460033021433869e-31,4.005776960136487e-11,6.797966115409846e-33
4.143108425780362e-11,6.79910046745839e-33,6.337645408471815e-10,3.2914049370447174e-05,2.5783144508295663e-09,1.007221062110375e-08,0.00017660181038081646,1.0731176189437974e-05,5.614950011335517e-31
4.0971705195236297e-11,6.798725043950096e-33,6.336929314620932e-10,5.022284810252131e-10,5.429218142323673e-31,4.005776960136487e-11,6.797966115409846e-33,4.143108425780362e-11,6.79910046745839e-33
6.337645408471815e-10,3.2914049370447174e-05,2.5783144508295663e-09,1.007221062110375e-08,0.00017660181038081646,1.0731176189437974e-05,5.614950011335517e-31,4.0971705195236297e-11,6.798725043950096e-33
6.409406339002999e-10,6.295131638189844e-10,5.429218142323673e-31,4.005776960136487e-11,6.797966115409846e-33,4.143108425780362e-11,6.79910046745839e-33,6.337645408471815e-10,3.2914049370447174e-05
2.5783144508295663e-09,1.007221062110375e-08,0.00017660181038081646,1.0731176189437974e-05,5.614950011335517e-31,4.0971705195236297e-11,6.798725043950096e-33,6.409406339002999e-10,6.295131638189844e-10
5.460033021433869e-31,4.005776960136487e-11,6.798154194505978e-33,4.143108425780362e-11,6.79910046745839e-33,6.337645408471815e-10,3.2914049370447174e-05,2.5783144508295663e-09,1.007221062110375e-08
0.00017660181038081646,1.0731176189437974e-05,5.614950011335517e-31,4.0971705195236297e-11,6.798725043950096e-33,6.336929314620932e-10,7.847320016018955e-12,6.409406339002999e-10,6.295131638189844e-10
5.429218142323673e-31,2.730698270170251e-06,5.615070381957041e-31,4.120351976277803e-11,6.798154194505978e-33,2.534774168339027e-09,7.847320883380693e-12,0.0001661188725847751,1.28570619040147e-07
2.72960255642829e-06,1.658119828107374e-07,5.553560994358174e-31,6.336909885718001e-10,7.847320016018955e-12,2.5637625356011995e-09,6.295131638189844e-10,5.429218142323673e-31,2.730698270170251e-06
5.615070381957041e-31,4.120351976277803e-11,6.798154194505978e-33,2.534774168339027e-09,7.847320883380693e-12,0.0001661188725847751,1.28570619040147e-07,2.72960255642829e-06,1.658119828107374e-07
5.553560994358174e-31,6.336909885718001e-10,7.847320016018955e-12,2.5637625356011995e-09,4.002669376501622e-11,6.797966115409846e-33,4.143108425780362e-11,6.79910046745839e-33,6.337645408471815e-10
3.2914049370447174e-05,2.5783144508295663e-09,1.007221062110375e-08,0.00017660181038081646,1.0731176189437974e-05,5.614950011335517e-31,4.0971705195236297e-11,6.798725043950096e-33,6.336929314620932e-10
5.022284810252131e-10,5.429218142323673e-31,4.005776960136487e-11,6.797966115409846e-33,4.143108425780362e-11,6.79910046745839e-33,6.337645408471815e-10,3.2914049370447174e-05,2.5783144508295663e-09
1.007221062110375e-08,0.00017660181038081646,1.0731176189437974e-05,5.614950011335517e-31,4.0971705195236297e-11,6.798725043950096e-33,6.336929314620932e-10,5.022284810252131e-10,5.429218142323673e-31
4.005776960136487e-11,6.797966115409846e-33,4.143108425780362e-11,6.79910046745839e-33,6.337645408471815e-10,3.2914049370447174e-05,2.5783144508295663e-09,1.007221062110375e-08,0.00017660181038081646
1.0731176189437974e-05,5.614950011335517e-31,4.0971705195236297e-11,6.798725043950096e-33,6.336929314620932e-10,7.847320016018955e-12,6.409406339002999e-10,6.295131638189844e-10,5.429218142323673e-31
2.730698270170251e-06,5.615070381957041e-31,4.120351976277803e-11,6.798154194505978e-33,2.534774168339027e-09,7.847320883380693e-12,0.0001661188725847751,1.28570619040147e-07,2.72960255642829e-06
1.658119828107374e-07,5.553560994358174e-31,4.005776960136487e-11,6.797966115409846e-33,2.5637625356011995e-09,6.295131638189844e-10,5.429218142323673e-31,2.730698270170251e-06,5.615070381957041e-31
4.120351976277803e-11,6.798154194505978e-33,2.534774168339027e-09,7.847320883380693e-12,0.0001661188725847751,1.28570619040147e-07,2.72960255642829e-06,1.658119828107374e-07,5.553560994358174e-31
4.005776960136487e-11,6.798154194505978e-33,6.409406339002999e-10,6.295131638189844e-10,5.460033021433869e-31,2.730698270170251e-06,5.615070381957041e-31,4.120351976277803e-11,6.798154194505978e-33
2.534774168339027e-09,7.847320883380693e-12,0.0001661188725847751,1.28570619040147e-07,2.72960255642829e-06,1.658119828107374e-07,5.553560994358174e-31,4.005776960136487e-11,6.797966115409846e-33
6.336929314620932e-10,7.847320016018955e-12,6.409406339002999e-10,1.1506036571518052e-05,2.744503490248462e-06,6.818743827352591e-07,5.460033021433869e-31,4.006753956398157e-11,6.798154929189947e-33
4.0062331924106687e-11,6.799665439430754e-33,1.0384061170043424e-05,8.035661025473928e-09,1.7246276229343493e-07,4.002669376501622e-11,6.797966115409846e-33,6.336929314620932e-10,5.022284810252131e-10
5.429218142323673e-31,2.730698270170251e-06,5.615070381957041e-31,4.120351976277803e-11,6.798154194505978e-33,2.534774168339027e-09,7.847320883380693e-12,0.0001661188725847751,1.28570619040147e-07
2.72960255642829e-06,1.658119828107374e-07,5.553560994358174e-31,6.336909885718001e-10,7.847320016018955e-12,6.409406339002999e-10,6.295131638189844e-10,5.429218142323673e-31,2.730698270170251e-06
5.615070381957041e-31,4.120351976277803e-11,6.798154194505978e-33,2.534774168339027e-09,7.847320883380693e-12,0.0001661188725847751,1.28570619040147e-07,2.72960255642829e-06,1.658119828107374e-07
5.553560994358174e-31,4.005776960136487e-11,6.797966115409846e-33,6.336929314620932e-10,7.847320016018955e-12,6.409406339002999e-10,1.1506036571518052e-05,2.744503490248462e-06,6.818743827352591e-07
5.460033021433869e-31,4.006753956398157e-11,6.798154929189947e-33,4.0062331924106687e-11,6.799665439430754e-33,1.0384061170043424e-05,8.035661025473928e-09,1.7246276229343493e-07,6.295131638189844e-10
5.429218142323673e-31,4.005776960136487e-11,6.797966115409846e-33,6.336929314620932e-10,8.628219604492188,4.15353242715355e-05,8.228516890085302e-06,2.563763645824224e-09,6.695309306969932e-10
5.460153392055393e-31,6.482002712360213e-10,5.707635389909153e-31,4.165560257840539e-11,6.79909973277442e-33,0.00016613377374596894,5.02228703069818e-10,5.429218142323673e-31,4.005776960136487e-11
6.797966115409846e-33,6.336929314620932e-10,8.628220558166504,4.15353242715355e-05,8.228516890085302e-06,2.563763645824224e-09,6.695309306969932e-10,5.460153392055393e-31,6.482002712360213e-10
5.707635389909153e-31,4.165560257840539e-11,6.79909973277442e-33,0.00016613377374596894,5.02228703069818e-10,5.429218142323673e-31,4.005776960136487e-11,6.797966115409846e-33,6.336929314620932e-10
8.628220558166504,4.15353242715355e-05,8.228516890085302e-06,2.563763645824224e-09,6.695309306969932e-10,5.460153392055393e-31,6.482002712360213e-10,5.707635389909153e-31,4.165560257840539e-11
6.79909973277442e-33,0.00016613377374596894,7.847323485465907e-12,6.409406339002999e-10,6.295131638189844e-10,5.429218142323673e-31,4.005776960136487e-11,6.797966115409846e-33,4.143108425780362e-11
6.79910046745839e-33,6.337645408471815e-10,3.2914049370447174e-05,2.5783144508295663e-09,1.007221062110375e-08,0.00017660181038081646,1.0731176189437974e-05,5.614950011335517e-31,4.0971705195236297e-11
6.798725043950096e-33,6.336929314620932e-10,7.847320016018955e-12,6.409406339002999e-10,6.295131638189844e-10,5.429218142323673e-31,2.730698270170251e-06,5.615070381957041e-31,4.120351976277803e-11
6.798154194505978e-33,2.534774168339027e-09,7.847320883380693e-12,0.0001661188725847751,1.28570619040147e-07,2.72960255642829e-06,1.658119828107374e-07,5.553560994358174e-31,6.336909885718001e-10
7.847320016018955e-12,2.5637625356011995e-09,6.295131638189844e-10,5.429218142323673e-31,2.730698270170251e-06,5.615070381957041e-31,4.120351976277803e-11,6.798154194505978e-33,2.534774168339027e-09
7.847320883380693e-12,0.0001661188725847751,1.28570619040147e-07,2.72960255642829e-06,1.658119828107374e-07,5.553560994358174e-31,4.005776960136487e-11,6.797966115409846e-33,6.336929314620932e-10
7.847320016018955e-12,2.5637625356011995e-09,1.1506036571518052e-05,2.744503490248462e-06,6.818743827352591e-07,5.460033021433869e-31,4.006753956398157e-11,6.798154929189947e-33,4.0062331924106687e-11
6.799665439430754e-33,1.0384061170043424e-05,8.035661025473928e-09,1.7246276229343493e-07,6.295131638189844e-10,5.429218142323673e-31,4.005776960136487e-11,6.797966115409846e-33,6.336929314620932e-10
8.628219604492188,4.15353242715355e-05,8.228516890085302e-06,2.563763645824224e-09,6.695309306969932e-10,5.460153392055393e-31,6.482002712360213e-10,5.707635389909153e-31,4.165560257840539e-11
6.79909973277442e-33,0.00016613377374596894,7.847323485465907e-12,2.5637625356011995e-09,6.295131638189844e-10,5.460033021433869e-31,4.005776960136487e-11,6.797966115409846e-33,4.143108425780362e-11
6.79910046745839e-33,6.337645408471815e-10,3.2914049370447174e-05,2.5783144508295663e-09,1.007221062110375e-08,0.00017660181038081646,1.0731176189437974e-05,5.614950011335517e-31,4.0971705195236297e-11
6.798725043950096e-33,6.336929314620932e-10,7.847320883380693e-12,6.409406339002999e-10,6.295131638189844e-10,5.429218142323673e-31,2.730698270170251e-06,5.615070381957041e-31,4.120351976277803e-11
6.798154194505978e-33,2.534774168339027e-09,7.847320883380693e-12,0.0001661188725847751,1.28570619040147e-07,2.72960255642829e-06,1.658119828107374e-07,5.553560994358174e-31,4.005776960136487e-11
6.797966115409846e-33,6.336929314620932e-10,7.847320016018955e-12,6.409406339002999e-10,1.1506036571518052e-05,2.744503490248462e-06,6.818743827352591e-07,5.460033021433869e-31,4.006753956398157e-11
6.798154929189947e-33,4.0062331924106687e-11,6.799665439430754e-33,1.0384061170043424e-05,8.035661025473928e-09,1.7246276229343493e-07,6.295131638189844e-10,5.460033021433869e-31,6.336909885718001e-10
7.847320016018955e-12,6.409406339002999e-10,1.1506036571518052e-05,2.744503490248462e-06,6.818743827352591e-07,5.460033021433869e-31,4.006753956398157e-11,6.798154929189947e-33,4.0062331924106687e-11
6.799665439430754e-33,1.0384061170043424e-05,8.035661025473928e-09,1.7246276229343493e-07,6.295131638189844e-10,5.460033021433869e-31,4.005776960136487e-11,6.798154194505978e-33,6.409406339002999e-10
1.1506036571518052e-05,2.744503490248462e-06,6.818743827352591e-07,5.460033021433869e-31,4.006753956398157e-11,6.798154929189947e-33,4.0062331924106687e-11,6.799665439430754e-33,1.0384061170043424e-05
8.035661025473928e-09,1.7246276229343493e-07,4.002669376501622e-11,6.797966115409846e-33,6.336929314620932e-10,7.847320016018955e-12,6.409406339002999e-10,1.1506036571518052e-05,2.744503490248462e-06
6.818743827352591e-07,5.460033021433869e-31,4.006753956398157e-11,6.798154929189947e-33,4.0062331924106687e-11,6.799665439430754e-33,1.0384061170043424e-05,8.035661025473928e-09,1.7246276229343493e-07
6.295131638189844e-10,5.460033021433869e-31,4.005776960136487e-11,6.798154194505978e-33,6.409406339002999e-10,1.1506036571518052e-05,2.744503490248462e-06,6.818743827352591e-07,5.460033021433869e-31
4.006753956398157e-11,6.798154929189947e-33,4.0062331924106687e-11,6.799665439430754e-33,1.0384061170043424e-05,8.035661025473928e-09,1.7246276229343493e-07,4.002669376501622e-11,6.797966115409846e-33
6.409406339002999e-10,6.295131638189844e-10,5.429218142323673e-31,2.730698270170251e-06,5.615070381957041e-31,4.120351976277803e-11,6.798154194505978e-33,2.534774168339027e-09,7.847320883380693e-12
0.0001661188725847751,1.28570619040147e-07,2.72960255642829e-06,1.658119828107374e-07,5.553560994358174e-31,6.336909885718001e-10,5.022284810252131e-10,5.429218142323673e-31,6.336909885718001e-10
8.628219604492188,4.15353242715355e-05,8.228516890085302e-06,2.563763645824224e-09,6.695309306969932e-10,5.460153392055393e-31,6.482002712360213e-10,5.707635389909153e-31,4.165560257840539e-11
6.79909973277442e-33,0.00016613377374596894,7.847323485465907e-12,6.409406339002999e-10,4.002669376501622e-11,6.797966115409846e-33,6.336929314620932e-10,8.628219604492188,4.15353242715355e-05
8.228516890085302e-06,2.563763645824224e-09,6.695309306969932e-10,5.460153392055393e-31,6.482002712360213e-10,5.707635389909153e-31,4.165560257840539e-11,6.79909973277442e-33,0.00016613377374596894
5.02228703069818e-10,5.460033021433869e-31,4.005776960136487e-11,6.797966115409846e-33,6.336929314620932e-10,8.628220558166504,4.15353242715355e-05,8.228516890085302e-06,2.563763645824224e-09
6.695309306969932e-10,5.460153392055393e-31,6.482002712360213e-10,5.707635389909153e-31,4.165560257840539e-11,6.79909973277442e-33,0.00016613377374596894,7.847323485465907e-12,6.409406339002999e-10
6.295131638189844e-10,5.429218142323673e-31,4.005776960136487e-11,6.797966115409846e-33,4.143108425780362e-11,6.79910046745839e-33,6.337645408471815e-10,3.2914049370447174e-05,2.5783144508295663e-09
1.007221062110375e-08,0.00017660181038081646,1.0731176189437974e-05,5.614950011335517e-31,4.0971705195236297e-11,6.798725043950096e-33,6.336929314620932e-10,7.847320016018955e-12,6.409406339002999e-10
4.002669376501622e-11,6.797966115409846e-33,4.143108425780362e-11,6.79910046745839e-33,6.337645408471815e-10,3.2914049370447174e-05,2.5783144508295663e-09,1.007221062110375e-08,0.00017660181038081646
1.0731176189437974e-05,5.614950011335517e-31,4.0971705195236297e-11,6.798725043950096e-33,6.409406339002999e-10,4.002669376501622e-11,6.797966115409846e-33,6.409406339002999e-10,1.1506036571518052e-05
2.744503490248462e-06,6.818743827352591e-07,5.460033021433869e-31,4.006753956398157e-11,6.798154929189947e-33,4.0062331924106687e-11,6.799665439430754e-33,1.0384061170043424e-05,8.035661025473928e-09
1.7246276229343493e-07,4.002669376501622e-11,6.797966115409846e-33,6.409406339002999e-10,6.295131638189844e-10,5.429218142323673e-31,2.730698270170251e-06,5.615070381957041e-31,4.120351976277803e-11
6.798154194505978e-33,2.534774168339027e-09,7.847320883380693e-12,0.0001661188725847751,1.28570619040147e-07,2.72960255642829e-06,1.658119828107374e-07,5.553560994358174e-31,4.005776960136487e-11
6.797966115409846e-33,6.409406339002999e-10,6.295131638189844e-10,5.429218142323673e-31,2.730698270170251e-06,5.615070381957041e-31,4.120351976277803e-11,6.798154194505978e-33,2.534774168339027e-09
7.847320883380693e-12,0.0001661188725847751,1.28570619040147e-07,2.72960255642829e-06,1.658119828107374e-07,5.553560994358174e-31,4.005776960136487e-11,6.798154194505978e-33,2.5637625356011995e-09
6.295131638189844e-10,5.460033021433869e-31,2.730698270170251e-06,5.615070381957041e-31,4.120351976277803e-11,6.798154194505978e-33,2.534774168339027e-09,7.847320883380693e-12,0.0001661188725847751
1.28570619040147e-07,2.72960255642829e-06,1.658119828107374e-07,5.553560994358174e-31,4.005776960136487e-11,6.797966115409846e-33,6.336929314620932e-10,5.022285365363643e-10,5.429218142323673e-31
2.730698270170251e-06,5.615070381957041e-31,4.120351976277803e-11,6.798154194505978e-33,2.534774168339027e-09,7.847320883380693e-12,0.0001661188725847751,1.28570619040147e-07,2.72960255642829e-06
1.658119828107374e-07,5.553560994358174e-31,4.005776960136487e-11,6.797966115409846e-33,6.336929314620932e-10,5.022284810252131e-10,5.429218142323673e-31,2.730698270170251e-06,5.615070381957041e-31
4.120351976277803e-11,6.798154194505978e-33,2.534774168339027e-09,7.847320883380693e-12,0.0001661188725847751,1.28570619040147e-07,2.72960255642829e-06,1.658119828107374e-07,5.553560994358174e-31
4.005776960136487e-11,6.797966115409846e-33,6.336929314620932e-10,7.847320016018955e-12,2.5637625356011995e-09,1.1506036571518052e-05,2.744503490248462e-06,6.818743827352591e-07,5.460033021433869e-31
4.006753956398157e-11,6.798154929189947e-33,4.0062331924106687e-11,6.799665439430754e-33,1.0384061170043424e-05,8.035661025473928e-09,1.7246276229343493e-07,6.295131638189844e-10,5.460033021433869e-31
4.005776960136487e-11,6.797966115409846e-33,6.336929314620932e-10,8.628220558166504,4.15353242715355e-05,8.228516890085302e-06,2.563763645824224e-09,6.695309306969932e-10,5.460153392055393e-31
6.482002712360213e-10,5.707635389909153e-31,4.165560257840539e-11,6.79909973277442e-33,0.00016613377374596894,7.847323485465907e-12,6.409406339002999e-10,6.295131638189844e-10,5.429218142323673e-31
4.005776960136487e-11,6.798154194505978e-33,4.143108425780362e-11,6.79910046745839e-33,6.337645408471815e-10,3.2914049370447174e-05,2.5783144508295663e-09,1.007221062110375e-08,0.00017660181038081646
1.0731176189437974e-05,5.614950011335517e-31,4.0971705195236297e-11,6.798725043950096e-33,6.336929314620932e-10,7.847320883380693e-12,2.5637625356011995e-09,6.295131638189844e-10,5.429218142323673e-31
2.730698270170251e-06,5.615070381957041e-31,4.120351976277803e-11,6.798154194505978e-33,2.534774168339027e-09,7.847320883380693e-12,0.0001661188725847751,1.28570619040147e-07,2.72960255642829e-06
1.658119828107374e-07,5.553560994358174e-31,4.005776960136487e-11,6.797966115409846e-33,6.409406339002999e-10,4.002669376501622e-11,6.797966115409846e-33,4.143108425780362e-11,6.79910046745839e-33
6.337645408471815e-10,3.2914049370447174e-05,2.5783144508295663e-09,1.007221062110375e-08,0.00017660181038081646,1.0731176189437974e-05,5.614950011335517e-31,4.0971705195236297e-11,6.798725043950096e-33
6.336929314620932e-10,7.847320016018955e-12,2.5637625356011995e-09,6.295131638189844e-10,5.429218142323673e-31,2.730698270170251e-06,5.615070381957041e-31,4.120351976277803e-11,6.798154194505978e-33
2.534774168339027e-09,7.847320883380693e-12,0.0001661188725847751,1.28570619040147e-07,2.72960255642829e-06,1.658119828107374e-07,5.553560994358174e-31,4.005776960136487e-11,6.798154194505978e-33
6.409406339002999e-10,6.295131638189844e-10,5.429218142323673e-31,2.730698270170251e-06,5.615070381957041e-31,4.120351976277803e-11,6.798154194505978e-33,2.534774168339027e-09,7.847320883380693e-12
0.0001661188725847751,1.28570619040147e-07,2.72960255642829e-06,1.658119828107374e-07,5.553560994358174e-31,4.005776960136487e-11,6.797966115409846e-33,6.409406339002999e-10,6.295131638189844e-10
5.460033021433869e-31,2.730698270170251e-06,5.615070381957041e-31,4.120351976277803e-11,6.798154194505978e-33,2.534774168339027e-09,7.847320883380693e-12,0.0001661188725847751,1.28570619040147e-07
2.72960255642829e-06,1.658119828107374e-07,5.553560994358174e-31,6.336909885718001e-10,5.022285365363643e-10,5.460033021433869e-31,4.005776960136487e-11,6.797966115409846e-33,4.143108425780362e-11
6.79910046745839e-33,6.337645408471815e-10,3.2914049370447174e-05,2.5783144508295663e-09,1.007221062110375e-08,0.00017660181038081646,1.0731176189437974e-05,5.614950011335517e-31,4.0971705195236297e-11
6.798725043950096e-33,6.336929314620932e-10,5.022284810252131e-10,5.429218142323673e-31,4.005776960136487e-11,6.797966115409846e-33,4.143108425780362e-11,6.79910046745839e-33,6.337645408471815e-10
3.2914049370447174e-05,2.5783144508295663e-09,1.007221062110375e-08,0.00017660181038081646,1.0731176189437974e-05,5.614950011335517e-31,4.0971705195236297e-11,6.798725043950096e-33,6.336929314620932e-10
7.847320883380693e-12,2.5637625356011995e-09,4.002669376501622e-11,6.797966115409846e-33,4.143108425780362e-11,6.79910046745839e-33,6.337645408471815e-10,3.2914049370447174e-05,2.5783144508295663e-09
1.007221062110375e-08,0.00017660181038081646,1.0731176189437974e-05,5.614950011335517e-31,4.0971705195236297e-11,6.798725043950096e-33,6.336929314620932e-10,7.847320016018955e-12,6.409406339002999e-10
6.295131638189844e-10,5.460033021433869e-31,2.730698270170251e-06,5.615070381957041e-31,4.120351976277803e-11,6.798154194505978e-33,2.534774168339027e-09,7.847320883380693e-12,0.0001661188725847751
1.28570619040147e-07,2.72960255642829e-06,1.658119828107374e-07,5.553560994358174e-31,4.005776960136487e-11,6.797966115409846e-33,6.336929314620932e-10,7.847320016018955e-12,6.409406339002999e-10
1.1506036571518052e-05,2.744503490248462e-06,6.818743827352591e-07,5.460033021433869e-31,4.006753956398157e-11,6.798154929189947e-33,4.0062331924106687e-11,6.799665439430754e-33,1.0384061170043424e-05
8.035661025473928e-09,1.7246276229343493e-07,4.002669376501622e-11,6.797966115409846e-33,6.336929314620932e-10,7.847320016018955e-12,6.409406339002999e-10,1.1506036571518052e-05,2.744503490248462e-06
6.818743827352591e-07,5.460033021433869e-31,4.006753956398157e-11,6.798154929189947e-33,4.0062331924106687e-11,6.799665439430754e-33,1.0384061170043424e-05,8.035661025473928e-09,1.7246276229343493e-07
6.295131638189844e-10,5.429218142323673e-31,6.336909885718001e-10,7.847320016018955e-12,2.5637625356011995e-09,1.1506036571518052e-05,2.744503490248462e-06,6.818743827352591e-07,5.460033021433869e-31
4.006753956398157e-11,6.798154929189947e-33,4.0062331924106687e-11,6.799665439430754e-33,1.0384061170043424e-05,8.035661025473928e-09,1.7246276229343493e-07,6.295131638189844e-10,5.460033021433869e-31
4.005776960136487e-11,6.797966115409846e-33,6.336929314620932e-10,8.628219604492188,4.15353242715355e-05,8.228516890085302e-06,2.563763645824224e-09,6.695309306969932e-10,5.460153392055393e-31
6.482002712360213e-10,5.707635389909153e-31,4.165560257840539e-11,6.79909973277442e-33,0.00016613377374596894,7.847323485465907e-12,6.409406339002999e-10,6.295131638189844e-10,5.429218142323673e-31
6.336909885718001e-10,8.628219604492188,4.15353242715355e-05,8.228516890085302e-06,2.563763645824224e-09,6.695309306969932e-10,5.460153392055393e-31,6.482002712360213e-10,5.707635389909153e-31
4.165560257840539e-11,6.79909973277442e-33,0.00016613377374596894,7.847323485465907e-12,6.409406339002999e-10,6.295131638189844e-10,5.460033021433869e-31,4.005776960136487e-11,6.798154194505978e-33
4.143108425780362e-11,6.79910046745839e-33,6.337645408471815e-10,3.2914049370447174e-05,2.5783144508295663e-09,1.007221062110375e-08,0.00017660181038081646,1.0731176189437974e-05,5.614950011335517e-31
4.0971705195236297e-11,6.798725043950096e-33,6.336929314620932e-10,5.022285365363643e-10,5.429218142323673e-31,6.336909885718001e-10,8.628219604492188,4.15353242715355e-05,8.228516890085302e-06
2.563763645824224e-09,6.695309306969932e-10,5.460153392055393e-31,6.482002712360213e-10,5.707635389909153e-31,4.165560257840539e-11,6.79909973277442e-33,0.00016613377374596894,7.847323485465907e-12
6.409406339002999e-10,6.295131638189844e-10,5.429218142323673e-31,4.005776960136487e-11,6.797966115409846e-33,4.143108425780362e-11,6.79910046745839e-33,6.337645408471815e-10,3.2914049370447174e-05
2.5783144508295663e-09,1.007221062110375e-08,0.00017660181038081646,1.0731176189437974e-05,5.614950011335517e-31,4.0971705195236297e-11,6.798725043950096e-33,6.336929314620932e-10,7.847320016018955e-12
6.409406339002999e-10,4.002669376501622e-11,6.797966115409846e-33,4.143108425780362e-11,6.79910046745839e-33,6.337645408471815e-10,3.2914049370447174e-05,2.5783144508295663e-09,1.007221062110375e-08
0.00017660181038081646,1.0731176189437974e-05,5.614950011335517e-31,4.0971705195236297e-11,6.798725043950096e-33,6.336929314620932e-10,7.847320883380693e-12,6.409406339002999e-10,6.295131638189844e-10
5.460033021433869e-31,2.730698270170251e-06,5.615070381957041e-31,4.120351976277803e-11,6.798154194505978e-33,2.534774168339027e-09,7.847320883380693e-12,0.0001661188725847751,1.28570619040147e-07
2.72960255642829e-06,1.658119828107374e-07,5.553560994358174e-31,4.005776960136487e-11,6.797966115409846e-33,6.336929314620932e-10,7.847320883380693e-12,6.409406339002999e-10,1.1506036571518052e-05
2.744503490248462e-06,6.818743827352591e-07,5.460033021433869e-31,4.006753956398157e-11,6.798154929189947e-33,4.0062331924106687e-11,6.799665439430754e-33,1.0384061170043424e-05,8.035661025473928e-09
1.7246276229343493e-07,4.002669376501622e-11,6.797966115409846e-33,6.409406339002999e-10,6.295131638189844e-10,5.429218142323673e-31,2.730698270170251e-06,5.615070381957041e-31,4.120351976277803e-11
6.798154194505978e-33,2.534774168339027e-09,7.847320883380693e-12,0.0001661188725847751,1.28570619040147e-07,2.72960255642829e-06,1.658119828107374e-07,5.553560994358174e-31,6.336909885718001e-10
7.847320016018955e-12,2.5637625356011995e-09,6.295131638189844e-10,5.460033021433869e-31,2.730698270170251e-06,5.615070381957041e-31,4.120351976277803e-11,6.798154194505978e-33,2.534774168339027e-09
7.847320883380693e-12,0.0001661188725847751,1.28570619040147e-07,2.72960255642829e-06,1.658119828107374e-07,5.553560994358174e-31,4.005776960136487e-11,6.798154194505978e-33,6.336929314620932e-10
5.022284810252131e-10,5.429218142323673e-31,2.730698270170251e-06,5.615070381957041e-31,4.120351976277803e-11,6.798154194505978e-33,2.534774168339027e-09,7.847320883380693e-12,0.0001661188725847751
1.28570619040147e-07,2.72960255642829e-06,1.658119828107374e-07,5.553560994358174e-31,4.005776960136487e-11,6.798154194505978e-33,6.336929314620932e-10,7.847320883380693e-12,6.409406339002999e-10
1.1506036571518052e-05,2.744503490248462e-06,6.818743827352591e-07,5.460033021433869e-31,4.006753956398157e-11,6.798154929189947e-33,4.0062331924106687e-11,6.799665439430754e-33,1.0384061170043424e-05
8.035661025473928e-09,1.7246276229343493e-07,4.002669376501622e-11,6.797966115409846e-33,6.336929314620932e-10,7.847320016018955e-12,6.409406339002999e-10,1.1506036571518052e-05,2.744503490248462e-06
6.818743827352591e-07,5.460033021433869e-31,4.006753956398157e-11,6.798154929189947e-33,4.0062331924106687e-11,6.799665439430754e-33,1.0384061170043424e-05,8.035661025473928e-09,1.7246276229343493e-07
4.002669376501622e-11,6.798154194505978e-33,6.336929314620932e-10,7.847320016018955e-12,6.409406339002999e-10,1.1506036571518052e-05,2.744503490248462e-06,6.818743827352591e-07,5.460033021433869e-31
4.006753956398157e-11,6.798154929189947e-33,4.0062331924106687e-11,6.799665439430754e-33,1.0384061170043424e-05,8.035661025473928e-09,1.7246276229343493e-07,6.295131638189844e-10,5.429218142323673e-31
4.005776960136487e-11,6.798154194505978e-33,6.336929314620932e-10,8.628220558166504,4.15353242715355e-05,8.228516890085302e-06,2.563763645824224e-09,6.695309306969932e-10,5.460153392055393e-31
6.482002712360213e-10,5.707635389909153e-31,4.165560257840539e-11,6.79909973277442e-33,0.00016613377374596894,5.02228703069818e-10,5.429218142323673e-31,6.336909885718001e-10,5.022284810252131e-10
5.429218142323673e-31,2.730698270170251e-06,5.615070381957041e-31,4.120351976277803e-11,6.798154194505978e-33,2.534774168339027e-09,7.847320883380693e-12,0.0001661188725847751,1.28570619040147e-07
2.72960255642829e-06,1.658119828107374e-07,5.553560994358174e-31,6.336909885718001e-10,5.022284810252131e-10,5.429218142323673e-31,4.005776960136487e-11,6.797966115409846e-33,4.143108425780362e-11
6.79910046745839e-33,6.337645408471815e-10,3.2914049370447174e-05,2.5783144508295663e-09,1.007221062110375e-08,0.00017660181038081646,1.0731176189437974e-05,5.614950011335517e-31,4.0971705195236297e-11
6.798725043950096e-33,6.336929314620932e-10,5.022285365363643e-10,5.429218142323673e-31,4.005776960136487e-11,6.798154194505978e-33,4.143108425780362e-11,6.79910046745839e-33,6.337645408471815e-10
3.2914049370447174e-05,2.5783144508295663e-09,1.007221062110375e-08,0.00017660181038081646,1.0731176189437974e-05,5.614950011335517e-31,4.0971705195236297e-11,6.798725043950096e-33,6.409406339002999e-10
6.295131638189844e-10,5.429218142323673e-31,4.005776960136487e-11,6.797966115409846e-33,4.143108425780362e-11,6.79910046745839e-33,6.337645408471815e-10,3.2914049370447174e-05,2.5783144508295663e-09
1.007221062110375e-08,0.00017660181038081646,1.0731176189437974e-05,5.614950011335517e-31,4.0971705195236297e-11,6.798725043950096e-33,6.336929314620932e-10,5.022284810252131e-10,5.460033021433869e-31
4.005776960136487e-11,6.798154194505978e-33,4.143108425780362e-11,6.79910046745839e-33,6.337645408471815e-10,3.2914049370447174e-05,2.5783144508295663e-09,1.007221062110375e-08,0.00017660181038081646
1.0731176189437974e-05,5.614950011335517e-31,4.0971705195236297e-11,6.798725043950096e-33,6.336929314620932e-10,7.847320016018955e-12,6.409406339002999e-10,6.295131638189844e-10,5.429218142323673e-31
2.730698270170251e-06,5.615070381957041e-31,4.120351976277803e-11,6.798154194505978e-33,2.534774168339027e-09,7.847320883380693e-12,0.0001661188725847751,1.28570619040147e-07,2.72960255642829e-06
1.658119828107374e-07,5.553560994358174e-31,6.336909885718001e-10,7.847320016018955e-12,2.5637625356011995e-09,6.295131638189844e-10,5.460033021433869e-31,2.730698270170251e-06,5.615070381957041e-31
4.120351976277803e-11,6.798154194505978e-33,2.534774168339027e-09,7.847320883380693e-12,0.0001661188725847751,1.28570619040147e-07,2.72960255642829e-06,1.658119828107374e-07,5.553560994358174e-31
4.005776960136487e-11,6.797966115409846e-33,6.336929314620932e-10,7.847320883380693e-12,2.5637625356011995e-09,1.1506036571518052e-05,2.744503490248462e-06,6.818743827352591e-07,5.460033021433869e-31
4.006753956398157e-11,6.798154929189947e-33,4.0062331924106687e-11,6.799665439430754e-33,1.0384061170043424e-05,8.035661025473928e-09,1.7246276229343493e-07,4.002669376501622e-11,6.797966115409846e-33
6.336929314620932e-10,7.847320016018955e-12,6.409406339002999e-10,1.1506036571518052e-05,2.744503490248462e-06,6.818743827352591e-07,5.460033021433869e-31,4.006753956398157e-11,6.798154929189947e-33
4.0062331924106687e-11,6.799665439430754e-33,1.0384061170043424e-05,8.035661025473928e-09,1.7246276229343493e-07,6.295131638189844e-10,5.429218142323673e-31,4.005776960136487e-11,6.797966115409846e-33
6.409406339002999e-10,1.1506036571518052e-05,2.744503490248462e-06,6.818743827352591e-07,5.460033021433869e-31,4.006753956398157e-11,6.798154929189947e-33,4.0062331924106687e-11,6.799665439430754e-33
1.0384061170043424e-05,8.035661025473928e-09,1.7246276229343493e-07,6.295131638189844e-10,5.429218142323673e-31,4.005776960136487e-11,6.797966115409846e-33,6.336929314620932e-10,8.628220558166504
4.15353242715355e-05,8.228516890085302e-06,2.563763645824224e-09,6.695309306969932e-10,5.460153392055393e-31,6.482002712360213e-10,5.707635389909153e-31,4.165560257840539e-11,6.79909973277442e-33
0.00016613377374596894,7.847323485465907e-12,6.409406339002999e-10,6.295131638189844e-10,5.429218142323673e-31,6.336909885718001e-10,8.628219604492188,4.15353242715355e-05,8.228516890085302e-06
2.563763645824224e-09,6.695309306969932e-10,5.460153392055393e-31,6.482002712360213e-10,5.707635389909153e-31,4.165560257840539e-11,6.79909973277442e-33,0.00016613377374596894,7.847323485465907e-12
6.409406339002999e-10,6.295131638189844e-10,5.429218142323673e-31,4.005776960136487e-11,6.797966115409846e-33,4.143108425780362e-11,6.79910046745839e-33,6.337645408471815e-10,3.2914049370447174e-05
2.5783144508295663e-09,1.007221062110375e-08,0.00017660181038081646,1.0731176189437974e-05,5.614950011335517e-31,4.0971705195236297e-11,6.798725043950096e-33,6.336929314620932e-10,5.022284810252131e-10
5.429218142323673e-31,4.005776960136487e-11,6.798154194505978e-33,4.143108425780362e-11,6.79910046745839e-33,6.337645408471815e-10,3.2914049370447174e-05,2.5783144508295663e-09,1.007221062110375e-08
0.00017660181038081646,1.0731176189437974e-05,5.614950011335517e-31,4.0971705195236297e-11,6.798725043950096e-33,6.336929314620932e-10,5.022284810252131e-10,5.429218142323673e-31,4.005776960136487e-11
6.797966115409846e-33,4.143108425780362e-11,6.79910046745839e-33,6.337645408471815e-10,3.2914049370447174e-05,2.5783144508295663e-09,1.007221062110375e-08,0.00017660181038081646,1.0731176189437974e-05
5.614950011335517e-31,4.0971705195236297e-11,6.798725043950096e-33,6.336929314620932e-10,5.022285365363643e-10,5.429218142323673e-31,4.005776960136487e-11,6.797966115409846e-33,4.143108425780362e-11
6.79910046745839e-33,6.337645408471815e-10,3.2914049370447174e-05,2.5783144508295663e-09,1.007221062110375e-08,0.00017660181038081646,1.0731176189437974e-05,5.614950011335517e-31,4.0971705195236297e-11
6.798725043950096e-33,6.336929314620932e-10,7.847320016018955e-12,6.409406339002999e-10,6.295131638189844e-10,5.429218142323673e-31,2.730698270170251e-06,5.615070381957041e-31,4.120351976277803e-11
